subject_id,trial_index,trial_id,target,rt,rt_true,bin_acc,task_type,
1,0,FOREST,JUNGLE,1618,1618,1,SJT,
1,1,SINGLE,ALONE,1769,1769,1,SJT,
1,2,CITY,TOWN,1223,1223,1,SJT,
1,3,RESPITE,CONTEMPT,2691,,0,SJT,
1,4,NEAR,MOVE,1911,1911,1,SJT,
1,5,JAGUAR,PANTHER,1586,1586,1,SJT,
1,6,PURCHASE,SOLD,1421,1421,1,SJT,
1,7,TELEPHONE,COMPUTER,1640,1640,1,SJT,
1,8,MADNESS,HECTIC,1396,1396,1,SJT,
1,9,CONE,WEEDS,2604,,0,SJT,
1,10,ABSENT,DISTANCE,1741,1741,1,SJT,
1,11,SCISSORS,CLIPPER,1612,1612,1,SJT,
1,12,TON,HEAP,1636,1636,1,SJT,
1,13,CRIME,SIN,1908,1908,1,SJT,
1,14,JOIN,SPEND,2329,,0,SJT,
1,15,BINOCULAR,MONOCLE,2164,2164,1,SJT,
1,16,SWIMMING,OCEAN,1718,1718,1,SJT,
1,17,TIN,POT,1842,1842,1,SJT,
1,18,MEASLES,SHINGLES,1702,1702,1,SJT,
1,19,LATTER,GRACIOUS,1798,,0,SJT,
1,20,MIST,FOG,1516,1516,1,SJT,
1,21,BROOM,RAKE,2616,2616,1,SJT,
1,22,SWAMP,MARSH,2202,2202,1,SJT,
1,23,DEAD,LOST,2009,2009,1,SJT,
1,24,KID,YOUTH,1607,1607,1,SJT,
1,25,FAIR,EQUAL,2372,2372,1,SJT,
1,26,HOSTILITY,RESURRECTION,2544,,0,SJT,
1,27,RECRUIT,ENLIST,1647,1647,1,SJT,
1,28,ROLLING,TUMBLE,1591,1591,1,SJT,
1,29,ESSENTIAL,CRITICAL,1748,1748,1,SJT,
1,30,BRONZE,STEEL,1311,1311,1,SJT,
1,31,CHOP,SLICE,1653,1653,1,SJT,
1,32,DRAWING,OUTLINE,2290,2290,1,SJT,
1,33,STIMULUS,MASTERPIECE,2595,,0,SJT,
1,34,NORMAL,STANDARD,1868,1868,1,SJT,
1,35,PLIERS,CHISEL,2173,2173,1,SJT,
1,36,EXTRACT,PROCURE,2928,2928,1,SJT,
1,37,UNDERTAKING,CONSOLATION,1902,,0,SJT,
1,38,INTEND,PROVING,3115,,0,SJT,
1,39,THREW,LAUNCH,1604,1604,1,SJT,
1,40,FERTILE,GAELIC,2976,,0,SJT,
1,41,INSPIRED,MOTIVATE,1486,1486,1,SJT,
1,42,PERCH,STRAND,2399,,0,SJT,
1,43,SQUIRREL,PIGEON,1367,1367,1,SJT,
1,44,LICE,FLEA,1330,1330,1,SJT,
1,45,ESTATE,PROPERTY,1442,1442,1,SJT,
1,46,NOSE,EAR,1391,1391,1,SJT,
1,47,RIDDLE,PUZZLE,1607,1607,1,SJT,
1,48,GYMNASTICS,FLEXIBLE,1836,1836,1,SJT,
1,49,SUDS,SPOOL,2306,,0,SJT,
1,50,TUB,TANK,1495,1495,1,SJT,
1,51,TRACK,KICK,1426,,0,SJT,
1,52,ASSIST,ADVISED,2210,2210,1,SJT,
1,53,WRONG,BAD,1379,1379,1,SJT,
1,54,UNITE,MERGER,3031,3031,1,SJT,
1,55,BELIEF,LEGACY,2257,,0,SJT,
1,56,PAINTING,DRAWING,1339,1339,1,SJT,
1,57,MUD,DIRT,1620,1620,1,SJT,
1,58,MISTAKEN,INCORRECT,1697,1697,1,SJT,
1,59,SOCIALIST,TRANSPARENT,1946,,0,SJT,
1,60,NOPE,NAY,1774,1774,1,SJT,
1,61,BEAT,HIT,1428,1428,1,SJT,
1,62,IMMENSE,COSMIC,2258,2258,1,SJT,
1,63,WITHDRAWN,DETACHED,1689,1689,1,SJT,
1,64,FOUNDATION,ARCHITECT,2011,,0,SJT,
1,65,APPRAISAL,ASSESSMENT,1890,1890,1,SJT,
1,66,ADVANCED,COMPLEX,2110,2110,1,SJT,
1,67,INVOLVED,GIVING,2620,,0,SJT,
1,69,TRIBUNAL,INQUIRY,2229,2229,1,SJT,
1,70,WASHER,TRIPOD,3237,,0,SJT,
1,71,TEMPLE,MOSQUE,1508,1508,1,SJT,
1,72,DIFFERENCE,DECISION,3260,,0,SJT,
1,73,WEEPING,SOBBING,1304,1304,1,SJT,
1,74,ENTWINE,INTERLACE,2119,2119,1,SJT,
1,75,NASTY,SOUR,1865,1865,1,SJT,
1,76,FENCING,BORDER,2178,2178,1,SJT,
1,77,INTERIM,INCOMING,2118,,0,SJT,
1,78,LINING,STUFFING,2190,2190,1,SJT,
1,79,MESSY,NOISY,2720,,0,SJT,
1,80,LETTERBOX,CUBBYHOLE,2527,2527,1,SJT,
1,81,KNIFE,BLADE,1273,1273,1,SJT,
1,82,DURATION,INTERVAL,2095,2095,1,SJT,
1,83,WAGER,GAMBLE,3267,3267,1,SJT,
1,84,TOUGH,SECURE,2073,2073,1,SJT,
1,85,FAUNA,PLUMAGE,1645,,0,SJT,
1,86,SWAN,GOOSE,1435,1435,1,SJT,
1,87,ROCK,STONE,1209,1209,1,SJT,
1,88,HAM,TIN,2593,,0,SJT,
1,89,OWNERSHIP,POSSESSION,1592,1592,1,SJT,
1,90,ORDINARY,TRADITIONAL,2267,2267,1,SJT,
1,91,FORMULA,EQUATION,2393,2393,1,SJT,
1,92,ALIVE,ACTIVE,1213,1213,1,SJT,
1,93,OUTGOING,VOLATILE,3048,,0,SJT,
1,94,SPEAK,NOTE,1857,1857,1,SJT,
1,95,WITNESS,OBSERVE,1552,1552,1,SJT,
1,96,SCORE,STRIKE,1452,1452,1,SJT,
1,97,FALLACY,MALPRACTICE,1781,,0,SJT,
1,98,JAUNTY,FIENDISH,1759,,0,SJT,
1,99,ABACUS,CALCULATOR,3141,3141,1,SJT,
1,100,HARP,RAKE,2451,,0,SJT,
1,101,PROTOCOL,ETIQUETTE,2445,2445,1,SJT,
1,102,WILLING,EAGER,1381,1381,1,SJT,
1,103,INTERESTING,ENTERTAINING,2021,2021,1,SJT,
1,104,WEALTHY,RICH,1421,1421,1,SJT,
1,105,DISBELIEVING,MISREPRESENT,3519,,0,SJT,
1,106,DEBACLE,FIASCO,2889,2889,1,SJT,
1,107,COMPETENT,RELIABLE,2374,2374,1,SJT,
1,108,FALLING,DROPPING,1811,1811,1,SJT,
1,109,LITERATURE,PUBLICATION,2301,2301,1,SJT,
1,110,COMIC,PURPLE,3041,,0,SJT,
1,111,SLIT,GASH,2144,2144,1,SJT,
1,112,SUMMER,SEASON,1281,1281,1,SJT,
1,113,DEVELOP,PROGRESS,1868,1868,1,SJT,
1,114,DIGNIFIED,IMMORAL,1940,,0,SJT,
1,115,IMPAIR,SURMISE,3110,,0,SJT,
1,116,PASSION,DESIRE,1700,1700,1,SJT,
1,117,PRISONER,ASSASSIN,2029,2029,1,SJT,
1,118,CREATURE,MONSTER,1993,1993,1,SJT,
1,119,BUREAU,AGENCY,1959,1959,1,SJT,
1,120,VIOLIN,VIOLA,1900,1900,1,SJT,
1,121,PERFORMANCE,ACHIEVEMENT,2168,2168,1,SJT,
1,122,APRICOT,TABLESPOON,2314,,0,SJT,
1,123,BANG,CRASH,1309,1309,1,SJT,
1,124,WIDE,BROAD,2245,2245,1,SJT,
1,125,SURPLUS,ATOM,1755,,0,SJT,
1,126,VARIED,DIVERSE,2005,2005,1,SJT,
1,127,FROG,TOAD,1096,1096,1,SJT,
1,128,KEEN,EAGER,1367,1367,1,SJT,
1,129,DEPENDABLE,RELIABLE,1667,1667,1,SJT,
1,130,RUB,PET,2090,2090,1,SJT,
1,131,LEFT,RIGHT,1641,1641,1,SJT,
1,132,OVERBEARING,ARROGANT,3367,3367,1,SJT,
1,133,MODE,TREND,1931,1931,1,SJT,
1,134,DOWNCAST,WRETCHED,1811,1811,1,SJT,
1,135,MUST,TRY,3303,,0,SJT,
1,136,MASTER,OWNER,1923,1923,1,SJT,
1,138,COMPLEMENTARY,REPRODUCTIVE,4436,,0,SJT,
1,139,FEW,SOME,1808,1808,1,SJT,
1,140,ANT,BUG,1173,1173,1,SJT,
1,141,LOVING,DESERVE,2171,,0,SJT,
1,142,PANTS,BRIEFS,1972,1972,1,SJT,
1,143,MOLECULE,ELEMENT,2446,2446,1,SJT,
1,144,CORRUPT,SINFUL,1894,1894,1,SJT,
1,145,SPUR,PROD,1870,1870,1,SJT,
1,146,LISTLESS,SCORNFUL,1951,,0,SJT,
1,147,TOKEN,SYMBOL,2113,2113,1,SJT,
1,148,HORSE,GOAT,1522,1522,1,SJT,
1,149,SURROUND,CONQUER,1879,,0,SJT,
1,150,ENTERPRISING,UNASSUMING,2313,,0,SJT,
1,151,KEY,LOCK,1004,1004,1,SJT,
1,152,FERAL,BARBARIC,3158,3158,1,SJT,
1,153,GONE,PAST,1395,1395,1,SJT,
1,154,ASHEN,PASTY,3828,3828,1,SJT,
1,155,THOUGHT,MIND,1366,1366,1,SJT,
1,156,BLIND,SHADE,2471,2471,1,SJT,
1,157,SCENT,SMELT,1123,1123,1,SJT,
1,158,INFLUENCE,LEADERSHIP,1344,1344,1,SJT,
1,159,ELECTRIFY,CONTAMINATE,2462,,0,SJT,
1,160,EXAMINE,CONTEMPLATE,1890,1890,1,SJT,
1,161,UNSUCCESSFUL,INEFFECTIVE,1876,1876,1,SJT,
1,162,GREETING,SALUTE,1481,1481,1,SJT,
1,163,NEWS,PRESS,1283,1283,1,SJT,
1,164,FIXED,CHECKED,1970,,0,SJT,
1,165,MAINTAIN,REPAIR,1471,1471,1,SJT,
1,166,BACTERIA,ORGANISM,1324,1324,1,SJT,
1,167,ROUND,CURVE,1005,1005,1,SJT,
1,168,BEDROOM,KITCHEN,1353,1353,1,SJT,
1,169,EXPLICIT,PRAGMATIC,3053,,0,SJT,
1,170,BUTTERFLY,BUMBLEBEE,1386,1386,1,SJT,
1,171,IRRITATION,INCONVENIENCE,2062,2062,1,SJT,
1,172,CAUSE,BUILD,3016,3016,1,SJT,
1,173,ENACT,ORDAIN,1963,1963,1,SJT,
1,174,DISTILLATION,MUTILATION,2189,,0,SJT,
1,175,COMPLICATION,SUPREMACY,2255,,0,SJT,
1,176,FIREPLACE,CHIMNEY,1802,1802,1,SJT,
1,177,AVAILABLE,CONVENIENT,2303,2303,1,SJT,
1,178,PORK,BEEF,1230,1230,1,SJT,
1,179,FAILING,WEAKNESS,2136,2136,1,SJT,
1,180,CIDER,ALE,1863,1863,1,SJT,
1,181,MAY,TELL,4437,,0,SJT,
1,182,LEARNING,STUDY,1181,1181,1,SJT,
1,183,PROBLEM,ISSUE,1808,1808,1,SJT,
1,184,GIST,TACT,1246,,0,SJT,
1,185,CRUMBLY,BRITTLE,2097,2097,1,SJT,
1,186,WILD,ROUGH,2299,2299,1,SJT,
1,187,PATTERN,DESIGN,1388,1388,1,SJT,
1,188,MISCONCEPTION,SUPERSTITION,2616,2616,1,SJT,
1,189,INDENT,INCISE,1310,1310,1,SJT,
1,190,PLACE,WEEK,2982,,0,SJT,
1,191,CAMP,TENT,1574,1574,1,SJT,
1,192,TAME,MILD,2001,2001,1,SJT,
1,193,FELL,STUCK,1299,,0,SJT,
1,194,CONJECTURE,SPECULATION,2200,2200,1,SJT,
1,195,DESPOT,CAUCAS,1272,,0,SJT,
1,196,REAR,WORN,2893,,0,SJT,
1,197,BREEZE,DRAUGHT,2411,2411,1,SJT,
1,198,DISTANCE,APART,1426,1426,1,SJT,
1,199,KITTEN,FELINE,1738,1738,1,SJT,
1,200,BED,RAIN,3540,,0,SJT,
1,201,ALGAE,SEAWEED,1524,1524,1,SJT,
1,202,PAIR,COUPLE,1125,1125,1,SJT,
1,203,COMPRISE,CONSTITUTE,2883,2883,1,SJT,
1,204,CAMARADERIE,SOLIDARITY,1842,1842,1,SJT,
1,205,OCCUR,HAPPEN,1293,1293,1,SJT,
1,206,LIT,FLAME,1054,1054,1,SJT,
1,207,CONSIDERATE,THOUGHTFULNESS,1896,1896,1,SJT,
1,208,GROWTH,CHARGE,2684,,0,SJT,
1,209,BITE,SNACK,2275,2275,1,SJT,
1,210,ALIAS,ADJOURNMENT,2110,,0,SJT,
1,211,VAN,BUS,1359,1359,1,SJT,
1,212,DWELLING,ABODE,3115,3115,1,SJT,
1,213,TRY,VOTE,1876,,0,SJT,
1,214,NECK,THROAT,1133,1133,1,SJT,
1,215,VERDICT,OUTCOME,1448,1448,1,SJT,
1,216,DISCLOSURE,ADMISSION,1910,1910,1,SJT,
1,217,SHONE,BEAM,2618,2618,1,SJT,
1,218,SHED,BARN,1030,1030,1,SJT,
1,219,TULIP,LILY,1072,1072,1,SJT,
1,220,SOCK,SHOE,1434,1434,1,SJT,
1,221,FRONT,BACK,1496,1496,1,SJT,
1,222,ADULTERY,FIDELITY,2323,2323,1,SJT,
1,223,PYRAMID,HEXAGON,1661,1661,1,SJT,
1,224,INSINCERE,RENTABLE,3301,,0,SJT,
1,225,PURPOSE,FUNCTION,1882,1882,1,SJT,
1,226,REFORMATION,RENOVATION,2248,2248,1,SJT,
1,227,WEATHER,REPORT,1396,,0,SJT,
1,228,VOLCANO,ERUPTION,1645,1645,1,SJT,
1,229,POLKA,ENVOY,2272,,0,SJT,
1,230,KIND,GOOD,1286,1286,1,SJT,
1,231,RENT,HIRE,1440,1440,1,SJT,
1,232,BROKEN,BEATEN,2889,2889,1,SJT,
1,233,STRETCH,SQUAD,2863,,0,SJT,
1,234,FORBADE,VETO,1749,1749,1,SJT,
1,235,BUMP,GREENS,2962,,0,SJT,
1,236,FISHING,NET,1156,1156,1,SJT,
1,237,ENIGMA,MYSTERY,1805,1805,1,SJT,
1,238,CONDITION,CONFIDENCE,2288,,0,SJT,
1,239,FINE,SAME,2142,,0,SJT,
1,240,WON,EARN,2148,2148,1,SJT,
1,241,HOPELESSNESS,PESSIMISTIC,2769,2769,1,SJT,
1,242,SLAP,SMACK,1426,1426,1,SJT,
1,243,OUTCOME,CONTEXT,1591,,0,SJT,
1,244,JOLT,BLOT,1230,,0,SJT,
1,245,WELL,GOOD,1126,1126,1,SJT,
1,246,ESSAY,THESIS,1497,1497,1,SJT,
1,247,FIBULA,ANCHORMAN,2731,,0,SJT,
1,248,RAISE,REAR,1866,1866,1,SJT,
1,249,CRUSH,TOSS,2267,,0,SJT,
1,250,BASIC,SIMPLE,1177,1177,1,SJT,
1,251,CREW,TEAM,1217,1217,1,SJT,
1,252,TESTING,LEARNING,2033,2033,1,SJT,
1,253,CLEAN,WASH,1192,1192,1,SJT,
1,254,PROTECTION,SAFETY,1985,1985,1,SJT,
1,255,MANIFEST,EXHIBIT,2933,2933,1,SJT,
1,256,EMERGE,APPEAR,1491,1491,1,SJT,
1,257,FEUDALISM,REMINISCENCE,1381,,0,SJT,
1,258,SOCIETY,COMMUNITY,1403,1403,1,SJT,
1,259,LAVISH,PRISTINE,2030,,0,SJT,
1,260,SUFFIX,GRAMMAR,1272,1272,1,SJT,
1,261,MOCCASIN,GELATINE,2734,,0,SJT,
1,262,CRUSTACEAN,UNDERARM,1753,,0,SJT,
1,263,CONSIDERABLE,REASONABLE,2105,2105,1,SJT,
1,264,SPIRITED,ASTOUNDING,2213,,0,SJT,
1,265,RESTRICTED,FINITE,3294,3294,1,SJT,
1,266,SCENE,STAGE,1328,1328,1,SJT,
1,267,ERODE,DECOMPOSE,3583,3583,1,SJT,
1,268,PLUM,PEACH,1333,1333,1,SJT,
1,269,KNEW,AGE,3455,,0,SJT,
1,270,PUPIL,SCHOLAR,1050,1050,1,SJT,
1,271,RELIC,ANTIQUE,1850,1850,1,SJT,
1,272,PREVIOUS,PRIOR,1891,1891,1,SJT,
1,273,RECENT,MODERN,2946,2946,1,SJT,
1,274,YODEL,,,,0,SJT,
1,275,FRESH,NEW,1877,1877,1,SJT,
1,276,TEACH,COACH,1793,1793,1,SJT,
1,277,PIPING,GUTTER,1666,1666,1,SJT,
1,278,INTENSE,PRECISE,1722,,0,SJT,
1,279,CANAL,JURY,2634,,0,SJT,
1,280,SQUARE,SHAPE,1477,1477,1,SJT,
1,281,SEEN,VIEW,1528,1528,1,SJT,
1,282,STRENGTH,WEIGHT,1486,1486,1,SJT,
1,283,PROMISING,POTENTIAL,1470,1470,1,SJT,
1,284,PASS,FAIL,2029,2029,1,SJT,
1,285,ATTRIBUTE,ALLOCATE,2105,2105,1,SJT,
1,286,MARINADE,SATURATE,2113,2113,1,SJT,
1,287,POOR,BROKE,1272,1272,1,SJT,
1,288,OWN,WANT,2788,2788,1,SJT,
1,289,BY,WITH,2858,,0,SJT,
1,290,CONSTANT,STEADY,1770,1770,1,SJT,
1,291,CHARMING,PLEASANT,1650,1650,1,SJT,
1,292,DISAPPOINTED,DISCOURAGING,2028,2028,1,SJT,
1,293,WORN,AGED,2280,2280,1,SJT,
1,294,EFFECT,RESULT,2058,2058,1,SJT,
1,295,ARTIST,PAINTER,1570,1570,1,SJT,
1,296,RULE,SCHEME,1862,,0,SJT,
1,297,ALLERGEN,MEGASTORE,2216,,0,SJT,
1,298,PITCHER,BOTTLE,2261,2261,1,SJT,
1,299,WENT,GO,1776,1776,1,SJT,
1,300,BEAUTICIAN,HAIRSTYLIST,1753,1753,1,SJT,
1,301,STOVE,OVEN,1302,1302,1,SJT,
1,302,ZERO,NIL,1351,1351,1,SJT,
1,303,PASSING,TRANSFER,2114,2114,1,SJT,
1,304,FACTOR,ASPECT,1582,1582,1,SJT,
1,305,AWARE,CONSCIOUS,1387,1387,1,SJT,
1,306,RUNG,TREAD,3937,3937,1,SJT,
1,307,REMARKABLE,SPECTACULAR,1722,1722,1,SJT,
1,308,FRIVOLOUS,DISMISSIVE,1262,,0,SJT,
1,309,EXALT,PERJURE,1910,,0,SJT,
1,310,EFFORT,ATTEMPT,2200,2200,1,SJT,
1,311,SMITTEN,LIKING,1442,1442,1,SJT,
1,312,GASP,BREATH,1421,1421,1,SJT,
1,313,ALLEGORY,FEROCIOUSLY,2841,,0,SJT,
1,314,LANTERN,CANDLE,1584,1584,1,SJT,
1,315,BARGAIN,AUCTION,2826,2826,1,SJT,
1,316,PRIVATE,QUIET,1801,,0,SJT,
1,317,KITE,TOY,1376,1376,1,SJT,
1,318,RATING,STATUS,1760,1760,1,SJT,
1,319,ROAD,LANE,1617,1617,1,SJT,
1,320,IRKSOME,UPLIFTING,1555,,0,SJT,
1,321,PERSUASION,COERCION,2476,2476,1,SJT,
1,322,AUDIT,INSPECT,1330,1330,1,SJT,
1,323,MAIL,POST,1610,1610,1,SJT,
1,324,LIE,FALSE,1633,1633,1,SJT,
1,325,EMULSION,REWIRE,2380,,0,SJT,
1,326,GALLANT,SHAMELESS,1431,,0,SJT,
1,327,YOUTH,FRESH,2443,2443,1,SJT,
1,328,WINE,CAKE,1272,,0,SJT,
1,329,WEIRD,STRANGE,1407,1407,1,SJT,
1,330,ORANGE,LEMON,1647,1647,1,SJT,
1,331,WAIL,HOWL,1594,1594,1,SJT,
1,332,MATCHSTICK,TOOTHPICK,2218,2218,1,SJT,
1,333,DEITY,SYNDICATE,2053,,0,SJT,
1,334,ROOT,SEED,1094,1094,1,SJT,
1,335,REFUGE,ASYLUM,1823,1823,1,SJT,
1,336,MOMENTOUS,PARAMOUNT,1882,1882,1,SJT,
1,337,ANTEATER,ARMADILLO,2628,2628,1,SJT,
1,338,EVENING,MORNING,1336,1336,1,SJT,
1,339,PROPER,LIKELY,1052,,0,SJT,
1,340,TENDENCY,LIKELIHOOD,1483,1483,1,SJT,
1,341,APPARENT,EVIDENT,2167,2167,1,SJT,
1,342,COSTUME,OUTFIT,1885,1885,1,SJT,
1,343,INERTIA,HAPHAZARD,1632,,0,SJT,
1,344,NICE,SWEET,1915,1915,1,SJT,
1,345,VARYING,VERIFY,1664,,0,SJT,
1,346,SMOOTHING,FLATTEN,2368,2368,1,SJT,
1,347,FRACTIOUS,INEPT,1338,,0,SJT,
1,348,BOAT,SHIP,1480,1480,1,SJT,
1,349,OWL,BAT,1352,1352,1,SJT,
1,350,CHAMPION,SUPPORTER,1564,1564,1,SJT,
1,351,OCELOT,ENGRAVER,2479,,0,SJT,
1,352,CLOTHING,GARMENT,1344,1344,1,SJT,
1,353,LOBSTER,SHRIMP,1121,1121,1,SJT,
1,354,KNOLL,SLOT,1430,,0,SJT,
1,355,NEMESIS,COMBATANT,2163,2163,1,SJT,
1,356,BITTERNESS,RESENTMENT,1943,1943,1,SJT,
1,357,DONE,READY,1760,1760,1,SJT,
1,358,FATE,COURAGE,2705,,0,SJT,
1,359,RABBIT,SQUIRREL,1168,1168,1,SJT,
1,360,CEILING,ATTIC,1325,1325,1,SJT,
1,361,OATH,SWEAR,1787,1787,1,SJT,
1,362,ALERT,WARNING,1614,1614,1,SJT,
1,363,MONTH,WEEK,1508,1508,1,SJT,
1,364,TWINKLE,DAZZLE,2419,2419,1,SJT,
1,365,ATTEST,SIGNIFY,1338,1338,1,SJT,
1,366,ACCURATE,IMMORAL,2018,,0,SJT,
1,367,LIVE,START,1912,1912,1,SJT,
1,368,TRESTLE,PEDESTAL,2266,2266,1,SJT,
1,369,LANDSCAPE,VISTA,2764,2764,1,SJT,
1,370,RESOLVE,PREDICT,1369,,0,SJT,
1,371,CHILLY,FROSTY,1120,1120,1,SJT,
1,372,PEONY,DAFFODIL,1586,1586,1,SJT,
1,373,ADVANTAGE,BENEFIT,2030,2030,1,SJT,
1,374,WET,DAMP,1210,1210,1,SJT,
1,375,DULLNESS,LATENESS,2008,,0,SJT,
1,376,PAIN,HURT,1479,1479,1,SJT,
1,377,WINTER,SUMMER,1094,1094,1,SJT,
1,378,FRANKINCENSE,WILDFLOWER,2525,,0,SJT,
1,379,COAST,SHORE,1360,1360,1,SJT,
1,380,TENSE,STIFF,2256,2256,1,SJT,
1,381,EDGE,LIP,1602,1602,1,SJT,
1,382,ELECT,GOVERN,2085,2085,1,SJT,
1,383,TOLD,SAID,1973,1973,1,SJT,
1,384,DECEPTION,BETRAYAL,2478,2478,1,SJT,
1,385,TELLING,SELECTED,2047,,0,SJT,
1,386,EAGLE,HAWK,1340,1340,1,SJT,
1,387,EQUIVALENT,CORRESPONDING,1992,1992,1,SJT,
1,388,JEWEL,GEM,1132,1132,1,SJT,
1,389,NUN,PRIEST,1764,1764,1,SJT,
1,390,AUDIENCE,ASSEMBLY,2257,2257,1,SJT,
1,391,SAMPLE,SPECIMEN,1472,1472,1,SJT,
1,392,DUEL,CLASH,1935,1935,1,SJT,
1,393,GROUND,SEA,1362,,0,SJT,
1,394,SEDATIVE,NARCOTIC,2359,2359,1,SJT,
1,395,RUBBLE,DEBRIS,1760,1760,1,SJT,
1,396,OPTIMISTIC,COMFORTING,2101,2101,1,SJT,
1,397,ABANDONED,OBLIGING,2720,,0,SJT,
1,398,KEPT,STAY,1515,1515,1,SJT,
1,399,BYLAW,REGULATE,2560,2560,1,SJT,
1,400,BUILDING,OFFICE,1013,1013,1,SJT,
1,401,IMPROPRIETY,INAPPROPRIATE,2013,2013,1,SJT,
1,402,SHRIMP,OYSTER,1842,1842,1,SJT,
1,403,HIDDEN,CONCEALED,1823,1823,1,SJT,
1,404,BOIL,STEEP,2065,2065,1,SJT,
1,405,MEASURE,DEGREE,1735,1735,1,SJT,
1,406,JAM,CURD,2033,2033,1,SJT,
1,407,EQUITY,DECENCY,1733,1733,1,SJT,
1,408,BELOVED,PRECIOUS,1720,1720,1,SJT,
1,409,BREWING,TENOR,2339,,0,SJT,
1,410,PREFERENCE,LIKING,1729,1729,1,SJT,
1,411,VALLEY,MOUNTAIN,1345,1345,1,SJT,
1,412,PICKLE,RELISH,1592,1592,1,SJT,
1,413,REVOLTING,OFFENSIVE,1678,1678,1,SJT,
1,414,TIDBIT,RUBRIC,2457,,0,SJT,
1,415,GRASS,BUSH,1622,1622,1,SJT,
1,416,EVOLUTION,TRANSFORMATION,1960,1960,1,SJT,
1,417,PROPERTY,COMPANY,2204,,0,SJT,
1,418,RUNNING,STANDING,1167,,0,SJT,
1,419,LED,DIRECT,1529,1529,1,SJT,
1,420,CURDLE,CONGEAL,3393,3393,1,SJT,
1,421,BABY,INFANT,1046,1046,1,SJT,
1,422,BAT,LEAF,2364,,0,SJT,
1,423,BID,STRIVE,1580,1580,1,SJT,
1,424,SEA,WAVE,1495,1495,1,SJT,
1,425,DISPENSE,BESTOW,2141,2141,1,SJT,
1,426,TYPICAL,OVERALL,1941,,0,SJT,
1,427,SENTENCE,VERDICT,1984,1984,1,SJT,
1,428,UNLIMITED,UNRESTRICTED,1582,1582,1,SJT,
1,429,FUNCTION,PURPOSE,1461,1461,1,SJT,
1,430,TREE,BRANCH,2223,2223,1,SJT,
1,431,CHRONOLOGY,STIPULATION,1600,,0,SJT,
1,432,REASON,BASIS,1436,1436,1,SJT,
1,433,REST,SLEPT,1036,1036,1,SJT,
1,434,CARBOHYDRATE,POLLINATION,2816,,0,SJT,
1,435,GRASP,CLING,1873,1873,1,SJT,
1,436,GUM,STOOL,3061,,0,SJT,
1,437,COST,PRICE,1434,1434,1,SJT,
1,438,DANCING,BALLROOM,1056,1056,1,SJT,
1,439,FORETHOUGHT,FALLBACK,2326,,0,SJT,
1,440,ROUTINE,PRACTICE,1631,1631,1,SJT,
1,441,KNOT,LACE,987,987,1,SJT,
1,442,DROWSY,WEARY,2084,2084,1,SJT,
1,443,RAY,BEAM,2228,2228,1,SJT,
1,444,UNDOING,ELITIST,2044,,0,SJT,
1,445,BUYER,CLIENT,1221,1221,1,SJT,
1,446,REPRISAL,POSSESS,1802,,0,SJT,
1,447,SELLING,TRADING,1158,1158,1,SJT,
1,448,WEARY,DROWSY,1779,1779,1,SJT,
1,449,FLAMING,BUNTING,1554,,0,SJT,
1,450,WEDGE,CHIME,1685,,0,SJT,
1,451,NECKLACE,PENDANT,1473,1473,1,SJT,
1,452,GREY,BLAND,1786,1786,1,SJT,
1,453,VEAL,FOAL,2282,2282,1,SJT,
2,0,RUBBLE,DEBRIS,1916,1916,1,SJT,
2,1,DESPOT,DRENCHING,2240,,0,SJT,
2,2,POLKA,ENVOY,2341,,0,SJT,
2,3,FOUNDATION,ARCHITECT,2862,,0,SJT,
2,4,BELIEF,LEGACY,2231,,0,SJT,
2,5,INTEND,ASPIRE,2011,2011,1,SJT,
2,6,VARYING,SEPARATE,2957,2957,1,SJT,
2,7,EFFORT,FOCUS,1832,,0,SJT,
2,8,MUD,DIRT,1604,1604,1,SJT,
2,9,RELIC,ANTIQUE,3235,3235,1,SJT,
2,10,LOBSTER,SHRIMP,1829,1829,1,SJT,
2,11,STOVE,OVEN,1751,1751,1,SJT,
2,12,RULE,CODE,2171,2171,1,SJT,
2,13,MIST,FOG,1218,1218,1,SJT,
2,14,IRKSOME,TEDIOUS,2213,2213,1,SJT,
2,15,WON,EARN,2569,2569,1,SJT,
2,16,BUREAU,AGENCY,2170,2170,1,SJT,
2,17,PERFORMANCE,ACHIEVEMENT,1406,1406,1,SJT,
2,18,GONE,PAST,1926,1926,1,SJT,
2,19,ROOT,SEED,1619,1619,1,SJT,
2,20,ABACUS,CALCULATOR,1848,1848,1,SJT,
2,21,REAR,STERN,3289,3289,1,SJT,
2,22,KIND,GOOD,1616,1616,1,SJT,
2,23,CLEAN,WASH,2394,2394,1,SJT,
2,24,RECRUIT,ENLIST,1773,1773,1,SJT,
2,25,PASS,FAIL,1517,1517,1,SJT,
2,26,PAIR,,,,0,SJT,
2,27,ADVANTAGE,BENEFIT,4127,4127,1,SJT,
2,28,YODEL,GAZETTE,3305,,0,SJT,
2,29,ABSENT,DISTANCE,2178,2178,1,SJT,
2,30,LOVING,ADORE,1596,1596,1,SJT,
2,31,MONTH,WEEK,1870,1870,1,SJT,
2,32,BEAUTICIAN,HAIRSTYLIST,1807,1807,1,SJT,
2,33,FEW,SOME,1844,1844,1,SJT,
2,34,BACTERIA,ORGANISM,1984,1984,1,SJT,
2,35,GROUND,FLOOR,2202,2202,1,SJT,
2,36,GASP,BREATH,1482,1482,1,SJT,
2,37,TREE,BRANCH,1663,1663,1,SJT,
2,38,SCORE,STRIKE,3628,3628,1,SJT,
2,39,SPUR,PROD,3030,3030,1,SJT,
2,40,ADULTERY,FIDELITY,2340,2340,1,SJT,
2,41,FROG,TOAD,2413,2413,1,SJT,
2,42,FINE,YES,1813,1813,1,SJT,
2,43,FRACTIOUS,OVERT,3768,,0,SJT,
2,44,SENTENCE,VERDICT,3977,3977,1,SJT,
2,45,PROTECTION,SAFETY,2805,2805,1,SJT,
2,46,PATTERN,DESIGN,3325,3325,1,SJT,
2,47,SMITTEN,LIKING,2125,2125,1,SJT,
2,48,SINGLE,ALONE,2015,2015,1,SJT,
2,49,GALLANT,VALIANT,2773,2773,1,SJT,
2,50,GRASS,BUSH,1350,1350,1,SJT,
2,51,PROPER,LIKELY,4243,,0,SJT,
2,52,ZERO,NIL,2016,2016,1,SJT,
2,53,KNEW,SENSE,3261,3261,1,SJT,
2,54,CONSTANT,STEADY,2299,2299,1,SJT,
2,55,WEDGE,SLAB,2838,2838,1,SJT,
2,56,SWAMP,MARSH,3081,3081,1,SJT,
2,57,EMULSION,,,,0,SJT,
2,58,ENTWINE,INTERLACE,2617,2617,1,SJT,
2,59,NICE,SWEET,2313,2313,1,SJT,
2,60,TEMPLE,MOSQUE,1781,1781,1,SJT,
2,61,LANTERN,CANDLE,1448,1448,1,SJT,
2,62,BITE,SNACK,2037,2037,1,SJT,
2,63,LETTERBOX,HYGIENIST,3990,,0,SJT,
2,64,TELLING,REVEALING,3709,3709,1,SJT,
2,65,SHONE,STUN,2260,,0,SJT,
2,66,MAINTAIN,REPAIR,2021,2021,1,SJT,
2,67,BUMP,,,,0,SJT,
2,68,MESSY,UNKEMPT,1887,1887,1,SJT,
2,69,RESTRICTED,FINITE,3160,3160,1,SJT,
2,70,FUNCTION,PURPOSE,3010,3010,1,SJT,
2,71,SMOOTHING,GARNISHED,3838,,0,SJT,
2,72,MADNESS,HECTIC,2092,2092,1,SJT,
2,73,BANG,CRASH,1656,1656,1,SJT,
2,74,CEILING,ATTIC,1634,1634,1,SJT,
2,75,WAGER,GAMBLE,1870,1870,1,SJT,
2,76,UNLIMITED,UNRESTRICTED,1817,1817,1,SJT,
2,77,SHED,BARN,1179,1179,1,SJT,
2,78,FORMULA,,,,0,SJT,
2,79,BREWING,FERMENT,1818,1818,1,SJT,
2,80,TEACH,COACH,1645,1645,1,SJT,
2,81,BUYER,CLIENT,2989,2989,1,SJT,
2,82,PLACE,NAME,4130,,0,SJT,
2,83,BROKEN,BEATEN,2822,2822,1,SJT,
2,84,WRONG,BAD,2290,2290,1,SJT,
2,85,PYRAMID,HEXAGON,2170,2170,1,SJT,
2,86,VAN,BUS,1699,1699,1,SJT,
2,87,UNITE,MERGER,3896,3896,1,SJT,
2,88,INERTIA,SECLUSION,3148,,0,SJT,
2,89,PERSUASION,COERCION,2402,2402,1,SJT,
2,90,ELECTRIFY,INVIGORATE,1959,1959,1,SJT,
2,91,SCENE,,,,0,SJT,
2,92,OWNERSHIP,DESCRIPTION,4276,,0,SJT,
2,93,BUILDING,OFFICE,3247,3247,1,SJT,
2,94,THOUGHT,MIND,3281,3281,1,SJT,
2,95,BY,WITH,2808,,0,SJT,
2,96,FERTILE,,,,0,SJT,
2,97,ARTIST,SURFACE,2632,,0,SJT,
2,98,NUN,PRIEST,1812,1812,1,SJT,
2,99,DEPENDABLE,RELIABLE,2912,2912,1,SJT,
2,100,WEATHER,CLIMATE,1497,1497,1,SJT,
2,101,DISTANCE,APART,1771,1771,1,SJT,
2,102,OVERBEARING,EXTRAPOLATE,2505,,0,SJT,
2,103,FERAL,BARBARIC,2962,2962,1,SJT,
2,104,FRONT,BACK,1711,1711,1,SJT,
2,105,ENTERPRISING,CONSPICUOUS,3582,,0,SJT,
2,106,CAUSE,BUILD,4414,4414,1,SJT,
2,107,THREW,LAUNCH,1334,1334,1,SJT,
2,108,INTERESTING,ENTERTAINING,2041,2041,1,SJT,
2,109,PITCHER,BOTTLE,4249,4249,1,SJT,
2,110,LED,DIRECT,3672,3672,1,SJT,
2,111,TULIP,LILY,2328,2328,1,SJT,
2,112,BABY,INFANT,1866,1866,1,SJT,
2,113,KITTEN,FELINE,1726,1726,1,SJT,
2,114,FISHING,NET,1685,1685,1,SJT,
2,115,DECEPTION,BETRAYAL,3920,3920,1,SJT,
2,116,REVOLTING,OFFENSIVE,2732,2732,1,SJT,
2,117,WINTER,SUMMER,1346,1346,1,SJT,
2,118,FLAMING,BUNTING,1397,,0,SJT,
2,119,TELEPHONE,MAGAZINE,3624,,0,SJT,
2,120,ROAD,LANE,1589,1589,1,SJT,
2,121,JEWEL,GEM,1124,1124,1,SJT,
2,122,SUDS,SOAP,2946,2946,1,SJT,
2,123,ANTEATER,ARMADILLO,1642,1642,1,SJT,
2,124,GROWTH,RISE,1985,1985,1,SJT,
2,125,BUTTERFLY,BUMBLEBEE,1822,1822,1,SJT,
2,126,CANAL,INLET,3961,3961,1,SJT,
2,127,SURPLUS,PROFIT,2318,2318,1,SJT,
2,128,SEDATIVE,NARCOTIC,2236,2236,1,SJT,
2,129,SLIT,RUT,3766,,0,SJT,
2,130,EXAMINE,CONTEMPLATE,2983,2983,1,SJT,
2,131,CRUMBLY,BRITTLE,3688,3688,1,SJT,
2,132,DEAD,LOST,3364,3364,1,SJT,
2,133,IMPAIR,APPRAISE,2662,,0,SJT,
2,134,WIDE,BROAD,2265,2265,1,SJT,
2,135,DWELLING,ABODE,4448,4448,1,SJT,
2,136,CHAMPION,SUPPORTER,2292,2292,1,SJT,
2,137,TAME,MILD,2308,2308,1,SJT,
2,138,WET,DAMP,1983,1983,1,SJT,
2,139,PREFERENCE,LIKING,2106,2106,1,SJT,
2,140,CAMARADERIE,SOLIDARITY,2758,2758,1,SJT,
2,141,EVENING,MORNING,1493,1493,1,SJT,
2,142,IRRITATION,INCONVENIENCE,2129,2129,1,SJT,
2,143,WITNESS,OBSERVE,1174,1174,1,SJT,
2,144,RAISE,REAR,3326,3326,1,SJT,
2,145,SWIMMING,OCEAN,1690,1690,1,SJT,
2,146,SQUARE,SHAPE,1678,1678,1,SJT,
2,147,MODE,THRILL,3906,,0,SJT,
2,148,WILLING,EAGER,2203,2203,1,SJT,
2,149,CHARMING,PLEASANT,4042,4042,1,SJT,
2,150,CRUSTACEAN,SHELLFISH,2167,2167,1,SJT,
2,151,NORMAL,STANDARD,2580,2580,1,SJT,
2,152,DONE,READY,2240,2240,1,SJT,
2,153,GUM,GLUE,1858,1858,1,SJT,
2,154,MANIFEST,EXHIBIT,1832,1832,1,SJT,
2,155,DULLNESS,BOREDOM,2016,2016,1,SJT,
2,156,TIDBIT,DAINTY,3112,3112,1,SJT,
2,157,OWL,BAT,1545,1545,1,SJT,
2,158,LIT,FLAME,2107,2107,1,SJT,
2,159,HIDDEN,CONCEALED,1950,1950,1,SJT,
2,160,JAUNTY,FIENDISH,2919,,0,SJT,
2,161,DURATION,INTERVAL,1884,1884,1,SJT,
2,162,REST,SLEPT,1645,1645,1,SJT,
2,163,KNIFE,BLADE,1950,1950,1,SJT,
2,164,COMPLICATION,IMPEDIMENT,3871,3871,1,SJT,
2,165,FELL,TRIP,3223,3223,1,SJT,
2,166,JOIN,BOND,3616,3616,1,SJT,
2,167,CHILLY,FROSTY,2517,2517,1,SJT,
2,168,ASHEN,FULLTIME,4457,,0,SJT,
2,169,FORETHOUGHT,SAINTHOOD,3771,,0,SJT,
2,170,PROTOCOL,ETIQUETTE,2867,2867,1,SJT,
2,171,EXTRACT,,,,0,SJT,
2,172,IMPROPRIETY,INAPPROPRIATE,4265,4265,1,SJT,
2,173,MOLECULE,ELEMENT,2845,2845,1,SJT,
2,174,DIFFERENCE,ARGUMENT,3979,3979,1,SJT,
2,175,ACCURATE,LITERAL,2011,2011,1,SJT,
2,176,LATTER,FORMER,2313,2313,1,SJT,
2,177,CREATURE,MONSTER,1566,1566,1,SJT,
2,178,PORK,BEEF,2572,2572,1,SJT,
2,179,KEEN,EAGER,1754,1754,1,SJT,
2,180,CITY,TOWN,1725,1725,1,SJT,
2,181,UNSUCCESSFUL,INEFFECTIVE,2369,2369,1,SJT,
2,182,TWINKLE,DAZZLE,1867,1867,1,SJT,
2,183,FAUNA,CRITTER,2910,2910,1,SJT,
2,184,WEEPING,SOBBING,1695,1695,1,SJT,
2,185,UNDERTAKING,CONSOLATION,3713,,0,SJT,
2,186,SEA,WAVE,1308,1308,1,SJT,
2,187,HORSE,GOAT,1848,1848,1,SJT,
2,188,DEVELOP,CONSIDERED,3448,,0,SJT,
2,189,LIE,FALSE,1758,1758,1,SJT,
2,190,PROMISING,EFFICIENT,2319,,0,SJT,
2,191,FIBULA,PATELLA,2842,2842,1,SJT,
2,192,NEAR,MOVE,3942,3942,1,SJT,
2,193,PLIERS,CHISEL,3524,3524,1,SJT,
2,194,DOWNCAST,TRANSVERSE,2316,,0,SJT,
2,195,PICKLE,RELISH,1279,1279,1,SJT,
2,196,JOLT,BLOT,1537,,0,SJT,
2,197,FEUDALISM,SUBJUGATION,3004,3004,1,SJT,
2,198,ALLEGORY,DISINCENTIVE,3637,,0,SJT,
2,199,MISCONCEPTION,,,,0,SJT,
2,200,INTENSE,PRECISE,3141,,0,SJT,
2,201,IMMENSE,LASTING,1804,,0,SJT,
2,202,TIN,POT,2803,2803,1,SJT,
2,203,DISCLOSURE,,,,0,SJT,
2,204,SOCIETY,COMMUNITY,1367,1367,1,SJT,
2,205,BRONZE,STEEL,1758,1758,1,SJT,
2,206,CAMP,TENT,1306,1306,1,SJT,
2,207,EXALT,REVERE,2929,2929,1,SJT,
2,208,ENACT,DEPRIVE,2427,,0,SJT,
2,209,GIST,TACT,2199,,0,SJT,
2,210,BLIND,SHADE,2647,2647,1,SJT,
2,211,CRIME,SIN,1626,1626,1,SJT,
2,212,KNOT,LACE,2074,2074,1,SJT,
2,213,BEDROOM,PAPER,3601,,0,SJT,
2,214,SCENT,SMELT,1880,1880,1,SJT,
2,215,FORBADE,VETO,2967,2967,1,SJT,
2,216,PIPING,DUSTING,3042,,0,SJT,
2,217,ATTEST,SIGNIFY,3221,3221,1,SJT,
2,218,EAGLE,HAWK,1719,1719,1,SJT,
2,219,VEAL,FOAL,2881,2881,1,SJT,
2,220,COST,PRICE,3146,3146,1,SJT,
2,221,EFFECT,RESULT,1243,1243,1,SJT,
2,222,GREY,BLAND,2746,2746,1,SJT,
2,223,SQUIRREL,PIGEON,1540,1540,1,SJT,
2,224,ROUTINE,PRACTICE,3048,3048,1,SJT,
2,225,LINING,STUFFING,2800,2800,1,SJT,
2,226,PASSION,DESIRE,2600,2600,1,SJT,
2,227,WEIRD,STRANGE,1845,1845,1,SJT,
2,228,SOCIALIST,LIBERAL,2662,2662,1,SJT,
2,229,FACTOR,ASPECT,3802,3802,1,SJT,
2,230,LIVE,TURN,3560,,0,SJT,
2,231,RENT,HIRE,3589,3589,1,SJT,
2,232,RATING,ONWARDS,3761,,0,SJT,
2,233,WEALTHY,RICH,1214,1214,1,SJT,
2,234,REPRISAL,REDRESS,3333,3333,1,SJT,
2,235,RESOLVE,SETTLE,3493,3493,1,SJT,
2,236,OUTCOME,CONSEQUENCE,2769,2769,1,SJT,
2,237,RESPITE,HEALING,2455,2455,1,SJT,
2,238,RIDDLE,PUZZLE,3226,3226,1,SJT,
2,239,SURROUND,ENCOMPASS,1988,1988,1,SJT,
2,240,ESSAY,THESIS,1710,1710,1,SJT,
2,241,INFLUENCE,LEADERSHIP,2545,2545,1,SJT,
2,242,VERDICT,OUTCOME,1605,1605,1,SJT,
2,243,INVOLVED,ABSORBED,3409,3409,1,SJT,
2,244,NECK,THROAT,3028,3028,1,SJT,
2,245,CREW,TEAM,1187,1187,1,SJT,
2,246,ENIGMA,PURITY,4057,,0,SJT,
2,247,DISPENSE,BESTOW,3700,3700,1,SJT,
2,248,HARP,FLUTE,1661,1661,1,SJT,
2,249,DUEL,CLASH,1639,1639,1,SJT,
2,250,OCELOT,ENGRAVER,2752,,0,SJT,
2,251,BROOM,RAKE,2113,2113,1,SJT,
2,252,ALIVE,ACTIVE,2469,2469,1,SJT,
2,253,LICE,FLEA,2257,2257,1,SJT,
2,254,FIREPLACE,CHIMNEY,1831,1831,1,SJT,
2,255,ALLERGEN,IRRITANT,3515,3515,1,SJT,
2,256,CONSIDERABLE,EDUCATIONAL,1829,,0,SJT,
2,257,ADVANCED,COMPLEX,2227,2227,1,SJT,
2,258,FENCING,SALUTE,2931,,0,SJT,
2,259,MOCCASIN,DINNERWARE,2562,,0,SJT,
2,260,FALLACY,AVERSION,3798,,0,SJT,
2,261,TENDENCY,LIKELIHOOD,2197,2197,1,SJT,
2,262,ORANGE,LEMON,1552,1552,1,SJT,
2,263,REFORMATION,RENOVATION,2049,2049,1,SJT,
2,264,RABBIT,SQUIRREL,1447,1447,1,SJT,
2,265,KNOLL,SLOT,1686,,0,SJT,
2,266,BREEZE,DRAUGHT,2620,2620,1,SJT,
2,267,EXPLICIT,PRAGMATIC,2646,,0,SJT,
2,268,PREVIOUS,PRIOR,3403,3403,1,SJT,
2,269,MEASLES,SHINGLES,2887,2887,1,SJT,
2,270,NASTY,SOUR,1855,1855,1,SJT,
2,271,PEONY,FOLLICLE,1962,,0,SJT,
2,272,WAIL,HOWL,2324,2324,1,SJT,
2,273,ALIAS,PSEUDONYM,2265,2265,1,SJT,
2,274,BAT,KICK,3741,3741,1,SJT,
2,275,HOSTILITY,ANTIPATHY,3090,3090,1,SJT,
2,276,TRIBUNAL,INQUIRY,1876,1876,1,SJT,
2,277,PLUM,PEACH,2050,2050,1,SJT,
2,278,DISTILLATION,REFINING,2752,2752,1,SJT,
2,279,BEAT,HIT,1479,1479,1,SJT,
2,280,LITERATURE,PUBLICATION,1980,1980,1,SJT,
2,281,DROWSY,CYNIC,2662,,0,SJT,
2,282,BYLAW,INHERIT,3340,,0,SJT,
2,283,SEEN,VIEW,1482,1482,1,SJT,
2,284,AWARE,CONSCIOUS,1470,1470,1,SJT,
2,285,RUNG,SLASH,3533,,0,SJT,
2,286,SOCK,SHOE,1698,1698,1,SJT,
2,287,FATE,LUCK,2125,2125,1,SJT,
2,288,TOKEN,SYMBOL,1956,1956,1,SJT,
2,289,CHRONOLOGY,NARRATIVE,3665,3665,1,SJT,
2,290,INTERIM,IMPROMPTU,4225,4225,1,SJT,
2,291,BASIC,SILLY,1797,,0,SJT,
2,292,COMIC,SLAPSTICK,3647,3647,1,SJT,
2,293,VALLEY,MOUNTAIN,1839,1839,1,SJT,
2,294,DANCING,BALLROOM,1589,1589,1,SJT,
2,295,PURPOSE,THEORY,3852,,0,SJT,
2,296,NEWS,,,,0,SJT,
2,297,WENT,GO,1905,1905,1,SJT,
2,298,FAILING,WEAKNESS,3161,3161,1,SJT,
2,299,ELECT,GOVERN,2789,2789,1,SJT,
2,300,SWAN,GOOSE,1278,1278,1,SJT,
2,301,CHOP,SLICE,1910,1910,1,SJT,
2,302,TRESTLE,PEDESTAL,3018,3018,1,SJT,
2,303,RUB,PET,2340,2340,1,SJT,
2,304,SPEAK,NOTE,1860,1860,1,SJT,
2,305,PANTS,BRIEFS,1639,1639,1,SJT,
2,306,SPIRITED,VIVACIOUS,3993,3993,1,SJT,
2,307,PRISONER,ASSASSIN,1890,1890,1,SJT,
2,308,GYMNASTICS,FLEXIBLE,1465,1465,1,SJT,
2,309,ROUND,CURVE,1198,1198,1,SJT,
2,310,RUNNING,MOVING,1809,1809,1,SJT,
2,311,JAGUAR,PANTHER,1107,1107,1,SJT,
2,312,WILD,ROUGH,3985,3985,1,SJT,
2,313,GREETING,SALUTE,2060,2060,1,SJT,
2,314,LEFT,RIGHT,1810,1810,1,SJT,
2,315,AUDIT,INSPECT,1257,1257,1,SJT,
2,316,COMPLEMENTARY,RECIPROCAL,3082,3082,1,SJT,
2,317,NOSE,EAR,1386,1386,1,SJT,
2,318,CONJECTURE,SPECULATION,3017,3017,1,SJT,
2,319,WORN,AGED,3112,3112,1,SJT,
2,320,SUMMER,SEASON,1595,1595,1,SJT,
2,321,MUST,TRY,2728,,0,SJT,
2,322,BARGAIN,AUCTION,2673,2673,1,SJT,
2,323,REMARKABLE,SPECTACULAR,1627,1627,1,SJT,
2,324,INSPIRED,MOTIVATE,2406,2406,1,SJT,
2,325,KEPT,FIT,2227,,0,SJT,
2,326,TYPICAL,OVERALL,3438,,0,SJT,
2,327,ROCK,STONE,1243,1243,1,SJT,
2,328,MOMENTOUS,PARAMOUNT,3685,3685,1,SJT,
2,329,SAMPLE,SPECIMEN,2001,2001,1,SJT,
2,330,SELLING,TRADING,1397,1397,1,SJT,
2,331,TOUGH,SECURE,1792,1792,1,SJT,
2,332,MASTER,OWNER,3439,3439,1,SJT,
2,333,DEITY,DIVINITY,2432,2432,1,SJT,
2,334,WASHER,GASKET,2539,2539,1,SJT,
2,335,HOPELESSNESS,PESSIMISTIC,2895,2895,1,SJT,
2,336,INSINCERE,CYNICAL,2749,2749,1,SJT,
2,337,PASSING,TRANSFER,4068,4068,1,SJT,
2,338,FRIVOLOUS,PENNILESS,3659,,0,SJT,
2,339,STRENGTH,WEIGHT,1815,1815,1,SJT,
2,340,TUB,GREASE,3084,,0,SJT,
2,341,DISAPPOINTED,DISCOURAGING,4486,4486,1,SJT,
2,342,FALLING,DROPPING,2786,2786,1,SJT,
2,343,TENSE,STIFF,2183,2183,1,SJT,
2,344,ATTRIBUTE,ALLOCATE,2262,2262,1,SJT,
2,345,OWN,SURE,3445,,0,SJT,
2,346,ORDINARY,TRADITIONAL,3692,3692,1,SJT,
2,347,KITE,TOY,2544,2544,1,SJT,
2,348,PROBLEM,ISSUE,1220,1220,1,SJT,
2,349,PAIN,HURT,1388,1388,1,SJT,
2,350,CONSIDERATE,THOUGHTFULNESS,1848,1848,1,SJT,
2,351,DEBACLE,FIASCO,3016,3016,1,SJT,
2,352,BINOCULAR,MONOCLE,2138,2138,1,SJT,
2,353,PRIVATE,,,,0,SJT,
2,354,POOR,BROKE,1739,1739,1,SJT,
2,355,CRUSH,TOSS,2005,,0,SJT,
2,356,ALGAE,SEAWEED,1893,1893,1,SJT,
2,357,KEY,LOCK,1541,1541,1,SJT,
2,358,MAIL,VAN,1473,,0,SJT,
2,359,ALERT,WARNING,2870,2870,1,SJT,
2,360,TON,SPRINT,3496,,0,SJT,
2,361,INDENT,INCISE,3964,3964,1,SJT,
2,362,DRAWING,OUTLINE,2431,2431,1,SJT,
2,363,LISTLESS,DETACHED,2673,2673,1,SJT,
2,364,CURDLE,CONGEAL,1962,1962,1,SJT,
2,365,BOIL,STEEP,1717,1717,1,SJT,
2,366,BOAT,SHIP,1275,1275,1,SJT,
2,367,PUPIL,SCHOLAR,3240,3240,1,SJT,
2,368,CARBOHYDRATE,CELLULOSE,2420,2420,1,SJT,
2,369,PERCH,ROOST,3659,3659,1,SJT,
2,370,AUDIENCE,,,,0,SJT,
2,371,JAM,CURD,1711,1711,1,SJT,
2,372,SCISSORS,CLIPPER,1833,1833,1,SJT,
2,373,BELOVED,PRIVILEGED,3457,,0,SJT,
2,374,MARINADE,CALCIUM,2454,,0,SJT,
2,375,MATCHSTICK,TOOTHPICK,3575,3575,1,SJT,
2,376,SLAP,SMACK,1640,1640,1,SJT,
2,377,MAY,CAN,3231,3231,1,SJT,
2,378,MISTAKEN,INCORRECT,1359,1359,1,SJT,
2,379,FAIR,EQUAL,3314,3314,1,SJT,
2,380,FRESH,NEW,2315,2315,1,SJT,
2,381,EMERGE,APPEAR,3148,3148,1,SJT,
2,382,REFUGE,ASYLUM,1823,1823,1,SJT,
2,383,WITHDRAWN,DETACHED,2051,2051,1,SJT,
2,384,OPTIMISTIC,COMFORTING,2680,2680,1,SJT,
2,385,CLOTHING,,,,0,SJT,
2,386,RAY,BEAM,1872,1872,1,SJT,
2,387,DIGNIFIED,MAJESTIC,2088,2088,1,SJT,
2,388,COSTUME,OUTFIT,1944,1944,1,SJT,
2,389,PURCHASE,SOLD,1581,1581,1,SJT,
2,390,WEARY,DROWSY,1747,1747,1,SJT,
2,391,LANDSCAPE,VISTA,1931,1931,1,SJT,
2,392,COMPETENT,RELIABLE,2178,2178,1,SJT,
2,393,EQUITY,DECENCY,2523,2523,1,SJT,
2,394,EVOLUTION,TRANSFORMATION,2838,2838,1,SJT,
2,395,APPRAISAL,ASSESSMENT,2419,2419,1,SJT,
2,396,FRANKINCENSE,SANDALWOOD,3320,3320,1,SJT,
2,397,AVAILABLE,CONVENIENT,2545,2545,1,SJT,
2,398,TESTING,LEARNING,3898,3898,1,SJT,
2,399,YOUTH,FRESH,1696,1696,1,SJT,
2,400,BID,STRIVE,2915,2915,1,SJT,
2,401,OUTGOING,EXTROVERT,1771,1771,1,SJT,
2,402,SURGEON,PHYSICIAN,1728,1728,1,SJT,
2,403,BITTERNESS,RESENTMENT,3059,3059,1,SJT,
2,404,TRY,TAX,3819,3819,1,SJT,
2,405,OCCUR,HAPPEN,1300,1300,1,SJT,
2,406,UNDOING,OVERTHROW,3330,3330,1,SJT,
2,407,OATH,SWEAR,1885,1885,1,SJT,
2,408,EQUIVALENT,CORRESPONDING,3116,3116,1,SJT,
2,409,VARIED,DIVERSE,3313,3313,1,SJT,
2,410,CONE,DAM,3743,,0,SJT,
2,411,PAINTING,DRAWING,1639,1639,1,SJT,
2,412,NOPE,NAY,1862,1862,1,SJT,
2,413,LAVISH,REGAL,1955,1955,1,SJT,
2,414,HAM,PORK,1954,1954,1,SJT,
2,415,VIOLIN,VIOLA,1765,1765,1,SJT,
2,416,GRASP,CLING,3809,3809,1,SJT,
2,417,ABANDONED,FORSAKEN,2714,2714,1,SJT,
2,418,TOLD,SAID,1764,1764,1,SJT,
2,419,EDGE,LIP,3123,3123,1,SJT,
2,420,STIMULUS,CATALYST,2251,2251,1,SJT,
2,421,ASSIST,ADVISED,2812,2812,1,SJT,
2,422,CIDER,ALE,2498,2498,1,SJT,
2,423,REASON,BASIS,3645,3645,1,SJT,
2,424,ANT,BUG,1707,1707,1,SJT,
2,425,ESSENTIAL,CRITICAL,1381,1381,1,SJT,
2,426,PROPERTY,COMPANY,2109,,0,SJT,
2,427,ROLLING,TUMBLE,2314,2314,1,SJT,
2,428,COMPRISE,CONSTITUTE,2445,2445,1,SJT,
2,429,STRETCH,SPAN,2995,2995,1,SJT,
2,430,MEASURE,DEGREE,2033,2033,1,SJT,
2,431,FOREST,JUNGLE,1356,1356,1,SJT,
2,432,KID,YOUTH,1491,1491,1,SJT,
2,433,CONDITION,REQUIREMENT,3448,3448,1,SJT,
2,434,DISBELIEVING,MISREPRESENT,2945,,0,SJT,
2,435,SHRIMP,OYSTER,2120,2120,1,SJT,
2,436,NECKLACE,PENDANT,1341,1341,1,SJT,
2,437,APRICOT,CANTALOUPE,1825,1825,1,SJT,
2,438,ERODE,DECOMPOSE,1935,1935,1,SJT,
2,439,WELL,GOOD,1207,1207,1,SJT,
2,440,NEMESIS,COMBATANT,2524,2524,1,SJT,
2,441,RECENT,MODERN,3400,3400,1,SJT,
2,442,VOLCANO,ERUPTION,1864,1864,1,SJT,
2,443,CORRUPT,SINFUL,2307,2307,1,SJT,
2,444,TRACK,PATH,1607,1607,1,SJT,
2,445,WINE,PORT,2762,2762,1,SJT,
2,446,LEARNING,STUDY,2666,2666,1,SJT,
2,447,BED,LOT,2882,2882,1,SJT,
2,448,APPARENT,EVIDENT,3530,3530,1,SJT,
2,449,SUFFIX,GRAMMAR,2079,2079,1,SJT,
2,450,FIXED,FOUGHT,3271,,0,SJT,
2,451,ESTATE,PROPERTY,2655,2655,1,SJT,
2,452,COAST,SHORE,1382,1382,1,SJT,
2,453,EASYGOING,APPRECIABLE,2907,,0,SJT,
3,0,ENACT,DEPRIVE,2377,,0,SJT,
3,1,ENTWINE,INTERLACE,1772,1772,1,SJT,
3,2,MAY,CAN,2023,2023,1,SJT,
3,3,VOLCANO,ERUPTION,2129,2129,1,SJT,
3,4,IMPAIR,LESSEN,2231,2231,1,SJT,
3,5,RUB,PET,1445,1445,1,SJT,
3,6,TWINKLE,DAZZLE,1161,1161,1,SJT,
3,7,BABY,INFANT,1411,1411,1,SJT,
3,8,BELIEF,LEGACY,2170,,0,SJT,
3,9,KNOLL,RIDGE,2529,2529,1,SJT,
3,10,FRESH,NEW,1774,1774,1,SJT,
3,11,KNEW,SENSE,2096,2096,1,SJT,
3,12,FENCING,BORDER,1775,1775,1,SJT,
3,13,DIFFERENCE,ARGUMENT,2340,2340,1,SJT,
3,14,JAM,CURD,1630,1630,1,SJT,
3,15,ABANDONED,FORSAKEN,3050,3050,1,SJT,
3,16,TESTING,LEARNING,1800,1800,1,SJT,
3,17,WENT,GO,1936,1936,1,SJT,
3,18,PRISONER,ASSASSIN,1562,1562,1,SJT,
3,19,SCENE,STAGE,2831,2831,1,SJT,
3,20,PORK,BEEF,1814,1814,1,SJT,
3,21,BITTERNESS,RESENTMENT,1648,1648,1,SJT,
3,22,OWL,BAT,1997,1997,1,SJT,
3,23,INDENT,MISPLACE,3117,,0,SJT,
3,24,PROPER,CORRECT,3695,3695,1,SJT,
3,25,TRACK,PATH,2511,2511,1,SJT,
3,26,DISPENSE,PANNING,3031,,0,SJT,
3,27,SPUR,SLING,2807,,0,SJT,
3,28,JAGUAR,PANTHER,2433,2433,1,SJT,
3,29,LIVE,START,3242,3242,1,SJT,
3,30,THREW,LAUNCH,1790,1790,1,SJT,
3,31,ALLEGORY,FEROCIOUSLY,3496,,0,SJT,
3,32,SPEAK,NOTE,3097,3097,1,SJT,
3,33,DEITY,SYNDICATE,3646,,0,SJT,
3,34,ESSENTIAL,CRITICAL,1651,1651,1,SJT,
3,35,ROCK,STONE,1007,1007,1,SJT,
3,36,OATH,SWEAR,1444,1444,1,SJT,
3,37,CRUSH,SQUEEZE,1736,1736,1,SJT,
3,38,COMPRISE,ATONE,3203,,0,SJT,
3,39,HORSE,GOAT,1915,1915,1,SJT,
3,40,KEEN,EAGER,1711,1711,1,SJT,
3,41,OUTCOME,CONSEQUENCE,1846,1846,1,SJT,
3,42,KIND,GOOD,1204,1204,1,SJT,
3,43,BED,EYE,4342,,0,SJT,
3,44,MESSY,UNKEMPT,3818,3818,1,SJT,
3,45,NECK,THROAT,2486,2486,1,SJT,
3,46,COMIC,SLAPSTICK,2971,2971,1,SJT,
3,47,GYMNASTICS,FLEXIBLE,1281,1281,1,SJT,
3,48,GRASP,CLING,1767,1767,1,SJT,
3,49,SURGEON,PHYSICIAN,1467,1467,1,SJT,
3,50,ADULTERY,FIDELITY,1796,1796,1,SJT,
3,51,LEFT,RIGHT,1940,1940,1,SJT,
3,52,STOVE,OVEN,867,867,1,SJT,
3,53,EVENING,MORNING,1223,1223,1,SJT,
3,54,JOLT,FRIGHT,2631,2631,1,SJT,
3,55,EFFECT,RESULT,1751,1751,1,SJT,
3,56,BARGAIN,AUCTION,1427,1427,1,SJT,
3,57,PICKLE,RELISH,1998,1998,1,SJT,
3,58,KEPT,FIT,2994,,0,SJT,
3,59,BRONZE,STEEL,2188,2188,1,SJT,
3,60,CHARMING,PLEASANT,1042,1042,1,SJT,
3,61,DISCLOSURE,ADMISSION,3978,3978,1,SJT,
3,62,FIXED,CHECKED,3625,,0,SJT,
3,63,DESPOT,TYRANT,4288,4288,1,SJT,
3,64,FLAMING,CASTER,2631,,0,SJT,
3,65,EXALT,REVERE,3652,3652,1,SJT,
3,66,CONJECTURE,NOTHINGNESS,3001,,0,SJT,
3,67,SLAP,SMACK,1669,1669,1,SJT,
3,68,FIBULA,PATELLA,2555,2555,1,SJT,
3,69,INERTIA,HAPHAZARD,3170,,0,SJT,
3,70,PROMISING,POTENTIAL,1907,1907,1,SJT,
3,71,JOIN,WORKED,2767,,0,SJT,
3,72,WITHDRAWN,DETACHED,3555,3555,1,SJT,
3,73,LIT,FLAME,1210,1210,1,SJT,
3,74,EQUIVALENT,ANALYSIS,3051,,0,SJT,
3,75,MAINTAIN,,,,0,SJT,
3,76,ENTERPRISING,,,,0,SJT,
3,77,BROKEN,BEATEN,2382,2382,1,SJT,
3,78,SEEN,VIEW,1384,1384,1,SJT,
3,79,MODE,TREND,3205,3205,1,SJT,
3,80,DWELLING,ABODE,4094,4094,1,SJT,
3,81,REFORMATION,RENOVATION,2857,2857,1,SJT,
3,82,ARTIST,PAINTER,1298,1298,1,SJT,
3,83,MOCCASIN,DINNERWARE,2939,,0,SJT,
3,84,CITY,TOWN,2047,2047,1,SJT,
3,85,ASHEN,PASTY,1714,1714,1,SJT,
3,86,INVOLVED,GIVING,3476,,0,SJT,
3,87,SCORE,STRIKE,1453,1453,1,SJT,
3,88,VARYING,INTEGRATE,2512,,0,SJT,
3,89,BID,STRIVE,4209,4209,1,SJT,
3,90,CARBOHYDRATE,CELLULOSE,2642,2642,1,SJT,
3,91,PLACE,NAME,3039,,0,SJT,
3,92,SENTENCE,CONTEST,3857,,0,SJT,
3,93,RUNG,SLASH,3310,,0,SJT,
3,94,SQUARE,SHAPE,2854,2854,1,SJT,
3,95,REST,SLEPT,2611,2611,1,SJT,
3,96,WINE,PORT,1146,1146,1,SJT,
3,97,FORBADE,ENSLAVE,1873,,0,SJT,
3,98,CEILING,ATTIC,1588,1588,1,SJT,
3,99,MATCHSTICK,TOOTHPICK,2492,2492,1,SJT,
3,100,VALLEY,MOUNTAIN,1474,1474,1,SJT,
3,101,HAM,PORK,911,911,1,SJT,
3,102,ASSIST,ADVISED,2048,2048,1,SJT,
3,103,CREW,TEAM,1193,1193,1,SJT,
3,104,MADNESS,INSTINCT,2195,,0,SJT,
3,105,RIDDLE,PUZZLE,1317,1317,1,SJT,
3,106,CAMP,TENT,1110,1110,1,SJT,
3,107,VIOLIN,VIOLA,1415,1415,1,SJT,
3,108,CIDER,ALE,1244,1244,1,SJT,
3,109,FAILING,WEAKNESS,1953,1953,1,SJT,
3,110,VEAL,FOAL,1383,1383,1,SJT,
3,111,ALIAS,PSEUDONYM,1899,1899,1,SJT,
3,112,CLEAN,WASH,1308,1308,1,SJT,
3,113,PROTECTION,SAFETY,1684,1684,1,SJT,
3,114,BINOCULAR,MONOCLE,1395,1395,1,SJT,
3,115,NOPE,NAY,1739,1739,1,SJT,
3,116,COST,PRICE,1466,1466,1,SJT,
3,117,ELECT,CONFRONT,1970,,0,SJT,
3,118,BEAUTICIAN,HAIRSTYLIST,1553,1553,1,SJT,
3,119,BOIL,WITCH,2375,,0,SJT,
3,120,PIPING,GUTTER,3270,3270,1,SJT,
3,121,HOPELESSNESS,PESSIMISTIC,2115,2115,1,SJT,
3,122,ATTEST,SIGNIFY,2444,2444,1,SJT,
3,123,RECENT,MODERN,2116,2116,1,SJT,
3,124,SEDATIVE,NARCOTIC,2901,2901,1,SJT,
3,125,EFFORT,FOCUS,1343,,0,SJT,
3,126,DISTANCE,APART,1470,1470,1,SJT,
3,127,FAIR,EQUAL,2035,2035,1,SJT,
3,128,PAIR,COUPLE,1496,1496,1,SJT,
3,129,FINE,YES,2005,2005,1,SJT,
3,130,EMULSION,TRANSFUSION,2420,,0,SJT,
3,131,PROPERTY,SOMEBODY,3321,,0,SJT,
3,132,SELLING,TRADING,2243,2243,1,SJT,
3,133,WEARY,DROWSY,1931,1931,1,SJT,
3,134,BASIC,SIMPLE,1210,1210,1,SJT,
3,135,UNLIMITED,UNRESTRICTED,2898,2898,1,SJT,
3,136,BUYER,CLIENT,1058,1058,1,SJT,
3,137,LICE,FLEA,1128,1128,1,SJT,
3,138,NORMAL,STANDARD,1411,1411,1,SJT,
3,139,VAN,BUS,1046,1046,1,SJT,
3,140,REAR,STERN,1390,1390,1,SJT,
3,141,DANCING,BALLROOM,1573,1573,1,SJT,
3,142,SWAN,GOOSE,1020,1020,1,SJT,
3,143,CAMARADERIE,SOLIDARITY,3254,3254,1,SJT,
3,144,TOKEN,SYMBOL,2173,2173,1,SJT,
3,145,PLUM,PEACH,937,937,1,SJT,
3,146,MISTAKEN,INCORRECT,1398,1398,1,SJT,
3,147,ABACUS,CALCULATOR,1655,1655,1,SJT,
3,148,TOUGH,MAIN,1742,,0,SJT,
3,149,OCCUR,HAPPEN,2675,2675,1,SJT,
3,150,BYLAW,REGULATE,2601,2601,1,SJT,
3,151,ZERO,NIL,1108,1108,1,SJT,
3,152,MISCONCEPTION,SUPERSTITION,2937,2937,1,SJT,
3,153,COSTUME,OUTFIT,1439,1439,1,SJT,
3,154,DRAWING,CRYING,2582,,0,SJT,
3,155,RUBBLE,DEBRIS,2067,2067,1,SJT,
3,156,MARINADE,SATURATE,3062,3062,1,SJT,
3,157,INTERESTING,ENTERTAINING,1666,1666,1,SJT,
3,158,BUREAU,AGENCY,2252,2252,1,SJT,
3,159,FRANKINCENSE,SANDALWOOD,1311,1311,1,SJT,
3,160,PUPIL,SCHOLAR,1399,1399,1,SJT,
3,161,CRUMBLY,BRITTLE,1127,1127,1,SJT,
3,162,BLIND,ROUGH,1398,,0,SJT,
3,163,HOSTILITY,ANTIPATHY,1974,1974,1,SJT,
3,164,ORANGE,LEMON,1132,1132,1,SJT,
3,165,CREATURE,MONSTER,2115,2115,1,SJT,
3,166,DROWSY,WEARY,1469,1469,1,SJT,
3,167,UNDOING,OVERTHROW,2155,2155,1,SJT,
3,168,DISTILLATION,MUTILATION,2263,,0,SJT,
3,169,YODEL,CAROL,2125,2125,1,SJT,
3,170,FIREPLACE,CHIMNEY,1301,1301,1,SJT,
3,171,NEAR,MOVE,1288,1288,1,SJT,
3,172,ALIVE,ACTIVE,2684,2684,1,SJT,
3,173,RENT,HIRE,2109,2109,1,SJT,
3,174,FEUDALISM,SUBJUGATION,2555,2555,1,SJT,
3,175,NECKLACE,PENDANT,2583,2583,1,SJT,
3,176,RELIC,ANTIQUE,1622,1622,1,SJT,
3,177,VARIED,DIVERSE,2883,2883,1,SJT,
3,178,WILLING,SUDDEN,1738,,0,SJT,
3,179,KEY,LOCK,1824,1824,1,SJT,
3,180,SAMPLE,SPECIMEN,2585,2585,1,SJT,
3,181,TRIBUNAL,INQUIRY,2184,2184,1,SJT,
3,182,MEASURE,BANKING,2326,,0,SJT,
3,183,POLKA,SAMBA,4071,4071,1,SJT,
3,184,SHED,BARN,1379,1379,1,SJT,
3,185,YOUTH,FRESH,1375,1375,1,SJT,
3,186,COMPLEMENTARY,RECIPROCAL,3433,3433,1,SJT,
3,187,WEDGE,SLAB,2206,2206,1,SJT,
3,188,BUILDING,OFFICE,1310,1310,1,SJT,
3,189,RAISE,TREAT,1857,,0,SJT,
3,190,LED,DIRECT,2243,2243,1,SJT,
3,191,AUDIENCE,ASSEMBLY,2115,2115,1,SJT,
3,192,PLIERS,CHISEL,1704,1704,1,SJT,
3,193,RABBIT,SQUIRREL,1147,1147,1,SJT,
3,194,PERSUASION,COERCION,3312,3312,1,SJT,
3,195,ENIGMA,ALLEGIANCE,3009,,0,SJT,
3,196,CURDLE,CONGEAL,2337,2337,1,SJT,
3,197,EXTRACT,PROCURE,1995,1995,1,SJT,
3,198,BREEZE,DRAUGHT,3276,3276,1,SJT,
3,199,BELOVED,PRECIOUS,3336,3336,1,SJT,
3,200,REFUGE,ASYLUM,2569,2569,1,SJT,
3,201,SWAMP,MARSH,1542,1542,1,SJT,
3,202,ROAD,LANE,1544,1544,1,SJT,
3,203,EMERGE,APPEAR,1470,1470,1,SJT,
3,204,OVERBEARING,EXTRAPOLATE,2769,,0,SJT,
3,205,RECRUIT,ENLIST,1786,1786,1,SJT,
3,206,SURPLUS,PROFIT,1498,1498,1,SJT,
3,207,SMITTEN,LIKING,2600,2600,1,SJT,
3,208,PERCH,ROOST,3182,3182,1,SJT,
3,209,WILD,GLAD,3365,,0,SJT,
3,210,ALLERGEN,IRRITANT,4078,4078,1,SJT,
3,211,PURCHASE,SOLD,1708,1708,1,SJT,
3,212,APPARENT,EVIDENT,3671,3671,1,SJT,
3,213,CAUSE,RATE,1272,,0,SJT,
3,214,PYRAMID,HEXAGON,3287,3287,1,SJT,
3,215,INFLUENCE,LEADERSHIP,2848,2848,1,SJT,
3,216,LAVISH,REGAL,2515,2515,1,SJT,
3,217,TUB,TANK,1032,1032,1,SJT,
3,218,SWIMMING,OCEAN,996,996,1,SJT,
3,219,THOUGHT,MIND,2096,2096,1,SJT,
3,220,FRACTIOUS,OVERT,2100,,0,SJT,
3,221,REMARKABLE,SPECTACULAR,1930,1930,1,SJT,
3,222,AWARE,CONSCIOUS,1417,1417,1,SJT,
3,223,KID,YOUTH,1452,1452,1,SJT,
3,224,PITCHER,BOTTLE,2069,2069,1,SJT,
3,225,ADVANTAGE,BENEFIT,2441,2441,1,SJT,
3,226,ADVANCED,COMPLEX,1924,1924,1,SJT,
3,227,OPTIMISTIC,COMFORTING,1670,1670,1,SJT,
3,228,DULLNESS,BOREDOM,2810,2810,1,SJT,
3,229,MIST,FOG,1279,1279,1,SJT,
3,230,MUD,DIRT,1053,1053,1,SJT,
3,231,GRASS,BUSH,1365,1365,1,SJT,
3,232,EDGE,,,,0,SJT,
3,233,DONE,READY,3319,3319,1,SJT,
3,234,NUN,PRIEST,1245,1245,1,SJT,
3,235,ANTEATER,ARMADILLO,2198,2198,1,SJT,
3,236,AVAILABLE,CONVENIENT,2512,2512,1,SJT,
3,237,IMMENSE,LASTING,2786,,0,SJT,
3,238,GROUND,FLOOR,2018,2018,1,SJT,
3,239,COAST,SHORE,1290,1290,1,SJT,
3,240,POOR,BROKE,1877,1877,1,SJT,
3,241,TAME,MILD,1725,1725,1,SJT,
3,242,ERODE,DECOMPOSE,1672,1672,1,SJT,
3,243,AUDIT,INSPECT,1465,1465,1,SJT,
3,244,KITTEN,FELINE,1225,1225,1,SJT,
3,245,BUTTERFLY,BUMBLEBEE,1672,1672,1,SJT,
3,246,PREVIOUS,DELICIOUS,1706,,0,SJT,
3,247,ALGAE,SEAWEED,2027,2027,1,SJT,
3,248,WET,DAMP,2313,2313,1,SJT,
3,249,SOCK,SHOE,1001,1001,1,SJT,
3,250,ROUTINE,PRACTICE,3087,3087,1,SJT,
3,251,WON,EARN,2566,2566,1,SJT,
3,252,TON,HEAP,2774,2774,1,SJT,
3,253,WIDE,BROAD,2642,2642,1,SJT,
3,254,WORN,AGED,1480,1480,1,SJT,
3,255,FOUNDATION,ARCHITECT,1813,,0,SJT,
3,256,TELEPHONE,COMPUTER,3361,3361,1,SJT,
3,257,PANTS,BRIEFS,1527,1527,1,SJT,
3,258,WITNESS,OBSERVE,1911,1911,1,SJT,
3,259,KITE,TOY,1848,1848,1,SJT,
3,260,EXPLICIT,OUTSPOKEN,1975,1975,1,SJT,
3,261,STIMULUS,MASTERPIECE,2777,,0,SJT,
3,262,SUFFIX,HARLOT,3005,,0,SJT,
3,263,COMPLICATION,IMPEDIMENT,3168,3168,1,SJT,
3,264,MONTH,WEEK,2211,2211,1,SJT,
3,265,CHRONOLOGY,NARRATIVE,3237,3237,1,SJT,
3,266,ESSAY,THESIS,2364,2364,1,SJT,
3,267,WAIL,HOWL,1562,1562,1,SJT,
3,268,NEMESIS,COMBATANT,3274,3274,1,SJT,
3,269,PEONY,DAFFODIL,2399,2399,1,SJT,
3,270,GREY,BLAND,1711,1711,1,SJT,
3,271,FUNCTION,,,,0,SJT,
3,272,SCISSORS,CLIPPER,1307,1307,1,SJT,
3,273,RATING,STATUS,2626,2626,1,SJT,
3,274,BY,WITH,2358,,0,SJT,
3,275,RUNNING,MOVING,2695,2695,1,SJT,
3,276,FERAL,BARBARIC,2226,2226,1,SJT,
3,277,NICE,SWEET,2422,2422,1,SJT,
3,278,SUDS,SOAP,1205,1205,1,SJT,
3,279,RESTRICTED,FINITE,2222,2222,1,SJT,
3,280,UNSUCCESSFUL,INEFFECTIVE,2185,2185,1,SJT,
3,281,MASTER,OWNER,1582,1582,1,SJT,
3,282,SHRIMP,OYSTER,1348,1348,1,SJT,
3,283,DEBACLE,FIASCO,2483,2483,1,SJT,
3,284,BANG,CRASH,1063,1063,1,SJT,
3,285,PROBLEM,ISSUE,1194,1194,1,SJT,
3,286,CONSTANT,STEADY,1797,1797,1,SJT,
3,287,COMPETENT,RELIABLE,2620,2620,1,SJT,
3,288,SCENT,SMELT,1587,1587,1,SJT,
3,289,DISAPPOINTED,DISCOURAGING,1379,1379,1,SJT,
3,290,GASP,BREATH,1777,1777,1,SJT,
3,291,IMPROPRIETY,INAPPROPRIATE,2247,2247,1,SJT,
3,292,TEACH,COACH,1691,1691,1,SJT,
3,293,BITE,SNACK,2661,2661,1,SJT,
3,294,DEAD,LOST,1572,1572,1,SJT,
3,295,JAUNTY,FIENDISH,2826,,0,SJT,
3,296,TYPICAL,ORDINARY,2402,2402,1,SJT,
3,297,BAT,LEAF,2536,,0,SJT,
3,298,LITERATURE,COMEDIAN,1852,,0,SJT,
3,299,REASON,BASIS,2843,2843,1,SJT,
3,300,FOREST,JUNGLE,1624,1624,1,SJT,
3,301,GREETING,SALUTE,1273,1273,1,SJT,
3,302,OWNERSHIP,POSSESSION,1463,1463,1,SJT,
3,303,RULE,SCHEME,1442,,0,SJT,
3,304,ROLLING,TUMBLE,2105,2105,1,SJT,
3,305,TOLD,TAKE,1262,,0,SJT,
3,306,CANAL,LIVER,1898,,0,SJT,
3,307,LISTLESS,DETACHED,3330,3330,1,SJT,
3,308,CRIME,SIN,1700,1700,1,SJT,
3,309,STRETCH,SPAN,1466,1466,1,SJT,
3,310,CONE,SPIRE,2670,2670,1,SJT,
3,311,EVOLUTION,TRANSFORMATION,2353,2353,1,SJT,
3,312,CLOTHING,GARMENT,1590,1590,1,SJT,
3,313,BREWING,FERMENT,1618,1618,1,SJT,
3,314,INTENSE,PROFOUND,2276,2276,1,SJT,
3,315,ATTRIBUTE,SPECIFY,2571,,0,SJT,
3,316,TIN,POT,2096,2096,1,SJT,
3,317,VERDICT,OUTCOME,1101,1101,1,SJT,
3,318,RESOLVE,PREDICT,2243,,0,SJT,
3,319,OCELOT,BOBCAT,1525,1525,1,SJT,
3,320,FACTOR,ASPECT,1725,1725,1,SJT,
3,321,CONDITION,REQUIREMENT,2881,2881,1,SJT,
3,322,ELECTRIFY,INVIGORATE,2113,2113,1,SJT,
3,323,TRY,VOTE,2692,,0,SJT,
3,324,MOLECULE,ELEMENT,3361,3361,1,SJT,
3,325,DUEL,CLASH,1198,1198,1,SJT,
3,326,IRRITATION,INCONVENIENCE,1578,1578,1,SJT,
3,327,WELL,GOOD,1355,1355,1,SJT,
3,328,SLIT,GASH,1467,1467,1,SJT,
3,329,LETTERBOX,CUBBYHOLE,2044,2044,1,SJT,
3,330,FRONT,BACK,1566,1566,1,SJT,
3,331,DEVELOP,PROGRESS,2135,2135,1,SJT,
3,332,FISHING,NET,1012,1012,1,SJT,
3,333,CHAMPION,SUPPORTER,1685,1685,1,SJT,
3,334,UNDERTAKING,CONSOLATION,2550,,0,SJT,
3,335,FEW,SOME,1227,1227,1,SJT,
3,336,APRICOT,TABLESPOON,1335,,0,SJT,
3,337,TULIP,LILY,1571,1571,1,SJT,
3,338,ROOT,SEED,1149,1149,1,SJT,
3,339,ROUND,CURVE,2269,2269,1,SJT,
3,340,SMOOTHING,FLATTEN,1307,1307,1,SJT,
3,341,PURPOSE,THEORY,2571,,0,SJT,
3,342,DOWNCAST,TRANSVERSE,1951,,0,SJT,
3,343,ANT,BUG,937,937,1,SJT,
3,344,DECEPTION,BETRAYAL,2742,2742,1,SJT,
3,345,NEWS,PRESS,2120,2120,1,SJT,
3,346,KNOT,LACE,1642,1642,1,SJT,
3,347,FROG,TOAD,913,913,1,SJT,
3,348,GIST,TACT,2120,,0,SJT,
3,349,FALLING,DROPPING,1329,1329,1,SJT,
3,350,TREE,BRANCH,1007,1007,1,SJT,
3,351,TEMPLE,MOSQUE,2317,2317,1,SJT,
3,352,PROTOCOL,ETIQUETTE,1848,1848,1,SJT,
3,353,WRONG,BAD,1087,1087,1,SJT,
3,354,MAIL,POST,1954,1954,1,SJT,
3,355,LATTER,FORMER,2896,2896,1,SJT,
3,356,GROWTH,RISE,2583,2583,1,SJT,
3,357,GALLANT,VALIANT,3277,3277,1,SJT,
3,358,OWN,WANT,2228,2228,1,SJT,
3,359,REPRISAL,POSSESS,3207,,0,SJT,
3,360,PASSING,TRANSFER,2560,2560,1,SJT,
3,361,NASTY,SOUR,1986,1986,1,SJT,
3,362,BUMP,MOUND,1420,1420,1,SJT,
3,363,ABSENT,DISTANCE,2028,2028,1,SJT,
3,364,MEASLES,SHINGLES,1434,1434,1,SJT,
3,365,FAUNA,PLUMAGE,2548,,0,SJT,
3,366,LINING,STUFFING,1488,1488,1,SJT,
3,367,PAIN,HURT,1019,1019,1,SJT,
3,368,TENDENCY,AVOIDANCE,2955,,0,SJT,
3,369,TELLING,REVEALING,2769,2769,1,SJT,
3,370,EQUITY,DECENCY,1748,1748,1,SJT,
3,371,TRESTLE,LANDFALL,2632,,0,SJT,
3,372,MUST,TRY,1713,,0,SJT,
3,373,OUTGOING,EXTROVERT,4319,4319,1,SJT,
3,374,MOMENTOUS,PARAMOUNT,1800,1800,1,SJT,
3,375,TENSE,STIFF,2232,2232,1,SJT,
3,376,DIGNIFIED,MAJESTIC,2636,2636,1,SJT,
3,377,SOCIETY,COMMUNITY,2868,2868,1,SJT,
3,378,ACCURATE,LITERAL,2821,2821,1,SJT,
3,379,KNIFE,BLADE,1223,1223,1,SJT,
3,380,WASHER,GASKET,2322,2322,1,SJT,
3,381,SUMMER,SEASON,1219,1219,1,SJT,
3,382,PASS,FAIL,1967,1967,1,SJT,
3,383,STRENGTH,WEIGHT,2310,2310,1,SJT,
3,384,EASYGOING,APPRECIABLE,2066,,0,SJT,
3,385,IRKSOME,TEDIOUS,2698,2698,1,SJT,
3,386,BACTERIA,ORGANISM,1933,1933,1,SJT,
3,387,GONE,PAST,1979,1979,1,SJT,
3,388,WINTER,SUMMER,1244,1244,1,SJT,
3,389,FORETHOUGHT,FALLBACK,2138,,0,SJT,
3,390,DURATION,INTERVAL,2641,2641,1,SJT,
3,391,FELL,TRIP,1126,1126,1,SJT,
3,392,PASSION,RESERVE,1283,,0,SJT,
3,393,SQUIRREL,PIGEON,1588,1588,1,SJT,
3,394,INTERIM,INCOMING,2960,,0,SJT,
3,395,BOAT,SHIP,1253,1253,1,SJT,
3,396,SURROUND,ENCOMPASS,1954,1954,1,SJT,
3,397,INTEND,INFORMED,2207,,0,SJT,
3,398,ORDINARY,TRADITIONAL,1488,1488,1,SJT,
3,399,LOBSTER,SHRIMP,1078,1078,1,SJT,
3,400,JEWEL,GEM,950,950,1,SJT,
3,401,WEIRD,STRANGE,1851,1851,1,SJT,
3,402,WEALTHY,RICH,1522,1522,1,SJT,
3,403,FERTILE,GAELIC,1739,,0,SJT,
3,404,CORRUPT,SINFUL,2154,2154,1,SJT,
3,405,HARP,FLUTE,1346,1346,1,SJT,
3,406,WEATHER,CLIMATE,926,926,1,SJT,
3,407,RESPITE,HEALING,2346,2346,1,SJT,
3,408,BROOM,RAKE,1324,1324,1,SJT,
3,409,MANIFEST,REACTIVE,2842,,0,SJT,
3,410,CONSIDERATE,THOUGHTFULNESS,1921,1921,1,SJT,
3,411,SEA,WAVE,885,885,1,SJT,
3,412,PAINTING,DRAWING,1141,1141,1,SJT,
3,413,DISBELIEVING,MISREPRESENT,3403,,0,SJT,
3,414,INSINCERE,CYNICAL,3197,3197,1,SJT,
3,415,RAY,BEAM,1435,1435,1,SJT,
3,416,BEAT,HIT,1016,1016,1,SJT,
3,417,BEDROOM,KITCHEN,1702,1702,1,SJT,
3,418,TIDBIT,RUBRIC,1971,,0,SJT,
3,419,FORMULA,JOURNALIST,2346,,0,SJT,
3,420,CHILLY,FROSTY,1166,1166,1,SJT,
3,421,PERFORMANCE,ACHIEVEMENT,2334,2334,1,SJT,
3,422,GUM,TRUCKS,3198,,0,SJT,
3,423,WAGER,GAMBLE,1624,1624,1,SJT,
3,424,FATE,LUCK,2101,2101,1,SJT,
3,425,DEPENDABLE,RELIABLE,3038,3038,1,SJT,
3,426,LIE,FALSE,1231,1231,1,SJT,
3,427,REVOLTING,OFFENSIVE,2717,2717,1,SJT,
3,428,LOVING,ADORE,1333,1333,1,SJT,
3,429,SOCIALIST,TRANSPARENT,2675,,0,SJT,
3,430,INSPIRED,MOTIVATE,1871,1871,1,SJT,
3,431,EXAMINE,CONTEMPLATE,1686,1686,1,SJT,
3,432,PATTERN,DESIGN,2066,2066,1,SJT,
3,433,SINGLE,ALONE,932,932,1,SJT,
3,434,LEARNING,STUDY,1750,1750,1,SJT,
3,435,EAGLE,HAWK,865,865,1,SJT,
3,436,LANTERN,CANDLE,1108,1108,1,SJT,
3,437,SHONE,BEAM,1444,1444,1,SJT,
3,438,CHOP,SLICE,1165,1165,1,SJT,
3,439,NOSE,EAR,1166,1166,1,SJT,
3,440,ESTATE,PROPERTY,1199,1199,1,SJT,
3,441,APPRAISAL,STRATEGIST,2101,,0,SJT,
3,442,PRIVATE,QUIET,2232,,0,SJT,
3,443,SPIRITED,VIVACIOUS,2401,2401,1,SJT,
3,444,FRIVOLOUS,FACETIOUS,3080,3080,1,SJT,
3,445,PREFERENCE,LIKING,2376,2376,1,SJT,
3,446,CRUSTACEAN,SHELLFISH,1358,1358,1,SJT,
3,447,UNITE,COMPOSED,2307,,0,SJT,
3,448,FALLACY,DELUSION,3625,3625,1,SJT,
3,449,ALERT,WARNING,2796,2796,1,SJT,
3,450,CONSIDERABLE,REASONABLE,2867,2867,1,SJT,
3,451,HIDDEN,CONCEALED,1363,1363,1,SJT,
3,452,WEEPING,SOBBING,1372,1372,1,SJT,
3,453,LANDSCAPE,VISTA,2645,2645,1,SJT,
4,0,PREVIOUS,PRIOR,2273,2273,1,SJT,
4,1,TREE,BRANCH,1513,1513,1,SJT,
4,2,PREFERENCE,LIKING,1431,1431,1,SJT,
4,3,BYLAW,INHERIT,2022,,0,SJT,
4,4,RESOLVE,SETTLE,3816,3816,1,SJT,
4,5,BEAT,,,,0,SJT,
4,6,OPTIMISTIC,SECULAR,3705,,0,SJT,
4,7,SAMPLE,SPECIMEN,2438,2438,1,SJT,
4,8,ROLLING,TUMBLE,2624,2624,1,SJT,
4,9,WRONG,BAD,3388,3388,1,SJT,
4,10,DISCLOSURE,ADMISSION,3339,3339,1,SJT,
4,11,JOLT,FRIGHT,3474,3474,1,SJT,
4,12,CAUSE,RATE,4168,,0,SJT,
4,13,FIXED,CHECKED,3859,,0,SJT,
4,14,KNOT,LACE,1917,1917,1,SJT,
4,15,CHILLY,FROSTY,1525,1525,1,SJT,
4,16,ENIGMA,MYSTERY,3964,3964,1,SJT,
4,17,STIMULUS,CATALYST,3057,3057,1,SJT,
4,18,NICE,SWEET,1719,1719,1,SJT,
4,19,NOSE,EAR,1556,1556,1,SJT,
4,20,CLEAN,WASH,2140,2140,1,SJT,
4,21,TENDENCY,LIKELIHOOD,1966,1966,1,SJT,
4,22,COMPETENT,RELIABLE,3919,3919,1,SJT,
4,23,CEILING,ATTIC,1919,1919,1,SJT,
4,24,INSINCERE,,,,0,SJT,
4,25,RIDDLE,PUZZLE,1506,1506,1,SJT,
4,26,MUD,JAIL,1131,,0,SJT,
4,27,DULLNESS,BOREDOM,2700,2700,1,SJT,
4,28,OCELOT,OCTAGON,3376,,0,SJT,
4,29,AUDIENCE,ASSEMBLY,2488,2488,1,SJT,
4,30,ANT,BUG,1102,1102,1,SJT,
4,31,BED,LOT,2651,2651,1,SJT,
4,32,PRISONER,ASSASSIN,3001,3001,1,SJT,
4,33,SUFFIX,GRAMMAR,2396,2396,1,SJT,
4,34,DWELLING,GARNISH,2629,,0,SJT,
4,35,WASHER,GASKET,2600,2600,1,SJT,
4,36,PERCH,BIRCH,3368,,0,SJT,
4,37,MISCONCEPTION,SUPERSTITION,3645,3645,1,SJT,
4,38,ACCURATE,LITERAL,3482,3482,1,SJT,
4,39,CARBOHYDRATE,MEMORANDUM,4221,,0,SJT,
4,40,NECK,LAMB,2730,,0,SJT,
4,41,BID,TERM,3710,,0,SJT,
4,42,FORETHOUGHT,PRUDENCE,3889,3889,1,SJT,
4,43,WAIL,HOWL,2516,2516,1,SJT,
4,44,PASSION,DESIRE,2021,2021,1,SJT,
4,45,TENSE,STIFF,2688,2688,1,SJT,
4,46,BITE,SNACK,3183,3183,1,SJT,
4,47,OUTCOME,CONSEQUENCE,2352,2352,1,SJT,
4,48,CAMARADERIE,MANIPULATION,4157,,0,SJT,
4,49,SOCIETY,COMMUNITY,1716,1716,1,SJT,
4,50,BREWING,FERMENT,2572,2572,1,SJT,
4,51,EFFORT,ATTEMPT,2043,2043,1,SJT,
4,52,LOVING,ADORE,2181,2181,1,SJT,
4,53,TRIBUNAL,ADVOCATE,3765,,0,SJT,
4,54,FLAMING,CASTER,3982,,0,SJT,
4,55,INVOLVED,ABSORBED,4019,4019,1,SJT,
4,56,REMARKABLE,SPECTACULAR,2883,2883,1,SJT,
4,57,WET,DAMP,1981,1981,1,SJT,
4,58,FIBULA,,,,0,SJT,
4,59,YOUTH,FRESH,3259,3259,1,SJT,
4,60,DISAPPOINTED,AFFECTED,3514,,0,SJT,
4,61,DONE,READY,4253,4253,1,SJT,
4,62,IMMENSE,LASTING,2780,,0,SJT,
4,63,PURPOSE,FUNCTION,3356,3356,1,SJT,
4,64,WEDGE,SLAB,3180,3180,1,SJT,
4,65,INTERESTING,ENTERTAINING,3020,3020,1,SJT,
4,66,VARIED,DIVERSE,2597,2597,1,SJT,
4,67,KNEW,SENSE,1925,1925,1,SJT,
4,68,RENT,MASS,3256,,0,SJT,
4,69,MEASURE,DEGREE,3086,3086,1,SJT,
4,70,BINOCULAR,MONOCLE,3177,3177,1,SJT,
4,71,WELL,RIGHT,3048,,0,SJT,
4,72,ATTRIBUTE,ALLOCATE,4249,4249,1,SJT,
4,73,CITY,TOWN,2234,2234,1,SJT,
4,74,PASSING,TRANSFER,2637,2637,1,SJT,
4,75,PROMISING,POTENTIAL,3353,3353,1,SJT,
4,76,OWN,WANT,3313,3313,1,SJT,
4,77,FRESH,NEW,1773,1773,1,SJT,
4,78,WAGER,GAMBLE,2051,2051,1,SJT,
4,79,MOLECULE,ELEMENT,1544,1544,1,SJT,
4,80,GRASS,BUSH,1300,1300,1,SJT,
4,81,NEAR,,,,0,SJT,
4,82,NUN,PRIEST,1706,1706,1,SJT,
4,83,IRRITATION,INCONVENIENCE,2701,2701,1,SJT,
4,84,FENCING,BORDER,1789,1789,1,SJT,
4,85,FAUNA,CRITTER,3566,3566,1,SJT,
4,86,DISTANCE,APART,3052,3052,1,SJT,
4,87,BEAUTICIAN,HAIRSTYLIST,1788,1788,1,SJT,
4,88,TWINKLE,DAZZLE,1799,1799,1,SJT,
4,89,NEWS,PRESS,1423,1423,1,SJT,
4,90,ABACUS,CALCULATOR,1416,1416,1,SJT,
4,91,PERFORMANCE,ACHIEVEMENT,3325,3325,1,SJT,
4,92,UNDERTAKING,CONSOLATION,3022,,0,SJT,
4,93,RABBIT,SQUIRREL,1264,1264,1,SJT,
4,94,RESPITE,CONTEMPT,3367,,0,SJT,
4,95,ADULTERY,FIDELITY,2084,2084,1,SJT,
4,96,RAY,ROB,3402,,0,SJT,
4,97,LICE,FLEA,1926,1926,1,SJT,
4,98,BLIND,SHADE,1434,1434,1,SJT,
4,99,SHED,BARN,1820,1820,1,SJT,
4,100,DUEL,CLASH,2115,2115,1,SJT,
4,101,RUNG,GAZE,3888,,0,SJT,
4,102,LIVE,START,3212,3212,1,SJT,
4,103,WEEPING,SOBBING,2953,2953,1,SJT,
4,104,SINGLE,ALONE,1488,1488,1,SJT,
4,105,OCCUR,HAPPEN,2578,2578,1,SJT,
4,106,DROWSY,WEARY,3100,3100,1,SJT,
4,107,DISBELIEVING,INCREDULOUS,4310,4310,1,SJT,
4,108,INSPIRED,MOTIVATE,2607,2607,1,SJT,
4,109,BABY,INFANT,1560,1560,1,SJT,
4,110,TRESTLE,PEDESTAL,4010,4010,1,SJT,
4,111,REST,SLEPT,1730,1730,1,SJT,
4,112,APRICOT,TABLESPOON,3112,,0,SJT,
4,113,WILD,ROUGH,4440,4440,1,SJT,
4,114,FISHING,NET,2492,2492,1,SJT,
4,115,PLIERS,CHISEL,2876,2876,1,SJT,
4,116,HARP,FLUTE,1438,1438,1,SJT,
4,117,GALLANT,SHAMELESS,3498,,0,SJT,
4,118,DEITY,,,,0,SJT,
4,119,BY,AT,4070,4070,1,SJT,
4,120,RELIC,VARNISH,3665,,0,SJT,
4,121,VERDICT,OUTCOME,2161,2161,1,SJT,
4,122,LEARNING,STUDY,1224,1224,1,SJT,
4,123,SUDS,SOAP,1455,1455,1,SJT,
4,124,FOUNDATION,ARCHITECT,4056,,0,SJT,
4,125,TELEPHONE,COMPUTER,2060,2060,1,SJT,
4,126,HOSTILITY,ANTIPATHY,3781,3781,1,SJT,
4,127,SCORE,STRIKE,2372,2372,1,SJT,
4,128,ADVANCED,COMPLEX,1863,1863,1,SJT,
4,129,KITTEN,FELINE,1390,1390,1,SJT,
4,130,FIREPLACE,CHIMNEY,1505,1505,1,SJT,
4,131,ALIVE,ACTIVE,1673,1673,1,SJT,
4,132,IMPAIR,LESSEN,3159,3159,1,SJT,
4,133,COAST,SHORE,2037,2037,1,SJT,
4,134,TRACK,PATH,1445,1445,1,SJT,
4,135,LOBSTER,SHRIMP,1193,1193,1,SJT,
4,136,CONDITION,CONFIDENCE,3432,,0,SJT,
4,137,PLUM,HEEL,3302,,0,SJT,
4,138,MOMENTOUS,,,,0,SJT,
4,139,WILLING,EAGER,1127,1127,1,SJT,
4,140,FERTILE,FRUITFUL,1351,1351,1,SJT,
4,141,KITE,TOY,3117,3117,1,SJT,
4,142,NOPE,NAY,1790,1790,1,SJT,
4,143,SLIT,GASH,1401,1401,1,SJT,
4,144,MAIL,POST,2353,2353,1,SJT,
4,145,BREEZE,DRAUGHT,3506,3506,1,SJT,
4,146,OATH,SWEAR,3307,3307,1,SJT,
4,147,PASS,MET,3078,,0,SJT,
4,148,TUB,GREASE,1658,,0,SJT,
4,149,BROKEN,BEATEN,2064,2064,1,SJT,
4,150,ERODE,DECOMPOSE,1526,1526,1,SJT,
4,151,ESTATE,PROPERTY,2141,2141,1,SJT,
4,152,BAT,LEAF,2040,,0,SJT,
4,153,SCISSORS,CLIPPER,993,993,1,SJT,
4,154,BARGAIN,AUCTION,1710,1710,1,SJT,
4,155,SQUIRREL,PIGEON,1478,1478,1,SJT,
4,156,VALLEY,MOUNTAIN,1208,1208,1,SJT,
4,157,ENACT,ORDAIN,2083,2083,1,SJT,
4,158,FEW,SOME,2066,2066,1,SJT,
4,159,JOIN,BOND,1696,1696,1,SJT,
4,160,CRUSH,SQUEEZE,1757,1757,1,SJT,
4,161,COMPLEMENTARY,RECIPROCAL,3546,3546,1,SJT,
4,162,WORN,AGED,1515,1515,1,SJT,
4,163,SOCIALIST,LIBERAL,2698,2698,1,SJT,
4,164,MARINADE,SATURATE,2575,2575,1,SJT,
4,165,YODEL,CAROL,2584,2584,1,SJT,
4,166,EDGE,LAUGH,3666,,0,SJT,
4,167,KNIFE,BLADE,2988,2988,1,SJT,
4,168,DECEPTION,BETRAYAL,3663,3663,1,SJT,
4,169,INFLUENCE,LEADERSHIP,2238,2238,1,SJT,
4,170,RUNNING,MOVING,2398,2398,1,SJT,
4,171,FINE,YES,3616,3616,1,SJT,
4,172,ROAD,LANE,1623,1623,1,SJT,
4,173,TEMPLE,MOSQUE,1218,1218,1,SJT,
4,174,POLKA,SAMBA,4051,4051,1,SJT,
4,175,GUM,GLUE,3790,3790,1,SJT,
4,176,TULIP,LILY,1913,1913,1,SJT,
4,177,ROOT,SEED,1391,1391,1,SJT,
4,178,MANIFEST,EXHIBIT,3916,3916,1,SJT,
4,179,CRIME,SIN,1685,1685,1,SJT,
4,180,SPUR,,,,0,SJT,
4,181,HOPELESSNESS,,,,0,SJT,
4,182,COMIC,SLAPSTICK,3546,3546,1,SJT,
4,183,AUDIT,FRANCHISE,1673,,0,SJT,
4,184,CLOTHING,SEASIDE,962,,0,SJT,
4,185,PROPER,CORRECT,2675,2675,1,SJT,
4,186,EASYGOING,NONCHALANT,2164,2164,1,SJT,
4,187,WITHDRAWN,DETACHED,2378,2378,1,SJT,
4,188,FATE,LUCK,2490,2490,1,SJT,
4,189,KIND,GOOD,1246,1246,1,SJT,
4,190,MUST,SHOULD,2435,2435,1,SJT,
4,191,TEACH,COACH,1936,1936,1,SJT,
4,192,LIT,FLAME,1212,1212,1,SJT,
4,193,STRETCH,SPAN,3423,3423,1,SJT,
4,194,MIST,FOG,1075,1075,1,SJT,
4,195,JEWEL,GEM,916,916,1,SJT,
4,196,SWIMMING,OCEAN,2066,2066,1,SJT,
4,197,BACTERIA,ORGANISM,2748,2748,1,SJT,
4,198,PICKLE,RELISH,1765,1765,1,SJT,
4,199,ROUND,CURVE,2450,2450,1,SJT,
4,200,PAINTING,WEBSITE,2835,,0,SJT,
4,201,WON,EARN,2796,2796,1,SJT,
4,202,SHONE,BEAM,1985,1985,1,SJT,
4,203,ELECTRIFY,INVIGORATE,3135,3135,1,SJT,
4,204,HAM,PORK,1253,1253,1,SJT,
4,205,EQUIVALENT,CORRESPONDING,2911,2911,1,SJT,
4,206,VEAL,STUMP,3268,,0,SJT,
4,207,ORDINARY,TRADITIONAL,2422,2422,1,SJT,
4,208,SQUARE,SHAPE,2538,2538,1,SJT,
4,209,ASHEN,PASTY,2940,2940,1,SJT,
4,210,FALLING,DROPPING,1742,1742,1,SJT,
4,211,PURCHASE,SOLD,3072,3072,1,SJT,
4,212,FOREST,JUNGLE,1430,1430,1,SJT,
4,213,ADVANTAGE,BENEFIT,1196,1196,1,SJT,
4,214,ZERO,NIL,1942,1942,1,SJT,
4,215,TOKEN,SYMBOL,1219,1219,1,SJT,
4,216,INDENT,INCISE,3724,3724,1,SJT,
4,217,FRIVOLOUS,PENNILESS,2550,,0,SJT,
4,218,SLAP,SMACK,1805,1805,1,SJT,
4,219,LANDSCAPE,VISTA,3676,3676,1,SJT,
4,220,FERAL,BARBARIC,3237,3237,1,SJT,
4,221,EFFECT,RESULT,2363,2363,1,SJT,
4,222,DISPENSE,BESTOW,2457,2457,1,SJT,
4,223,DANCING,BALLROOM,1593,1593,1,SJT,
4,224,PATTERN,DESIGN,1757,1757,1,SJT,
4,225,FUNCTION,PURPOSE,1584,1584,1,SJT,
4,226,KID,YOUTH,2053,2053,1,SJT,
4,227,PROTECTION,SAFETY,2458,2458,1,SJT,
4,228,SOCK,SHOE,1647,1647,1,SJT,
4,229,TESTING,LEARNING,3049,3049,1,SJT,
4,230,IRKSOME,TEDIOUS,3985,3985,1,SJT,
4,231,PAIR,COUPLE,1958,1958,1,SJT,
4,232,NEMESIS,COMBATANT,2332,2332,1,SJT,
4,233,BOAT,SHIP,1254,1254,1,SJT,
4,234,SCENT,SMELT,1285,1285,1,SJT,
4,235,PAIN,HURT,1393,1393,1,SJT,
4,236,OWL,BAT,1478,1478,1,SJT,
4,237,KEY,LOCK,1072,1072,1,SJT,
4,238,BUREAU,AGENCY,1229,1229,1,SJT,
4,239,UNDOING,OVERTHROW,3038,3038,1,SJT,
4,240,LETTERBOX,CUBBYHOLE,2520,2520,1,SJT,
4,241,BROOM,GRAVES,1574,,0,SJT,
4,242,VOLCANO,ERUPTION,2117,2117,1,SJT,
4,243,DRAWING,OUTLINE,1937,1937,1,SJT,
4,244,HORSE,GOAT,1504,1504,1,SJT,
4,245,UNITE,MERGER,1680,1680,1,SJT,
4,246,PROPERTY,COMPANY,2739,,0,SJT,
4,247,AVAILABLE,CONVENIENT,3566,3566,1,SJT,
4,248,SWAMP,MARSH,3012,3012,1,SJT,
4,249,MASTER,OWNER,1651,1651,1,SJT,
4,250,NORMAL,STANDARD,2700,2700,1,SJT,
4,251,WEATHER,CLIMATE,1851,1851,1,SJT,
4,252,CRUSTACEAN,SHELLFISH,3027,3027,1,SJT,
4,253,DOWNCAST,,,,0,SJT,
4,254,ABSENT,DISTANCE,3210,3210,1,SJT,
4,255,BUILDING,OFFICE,1550,1550,1,SJT,
4,256,JAM,LAB,4246,,0,SJT,
4,257,DEPENDABLE,RELIABLE,3217,3217,1,SJT,
4,258,FEUDALISM,,,,0,SJT,
4,259,LATTER,FAIRER,4498,,0,SJT,
4,260,MADNESS,HECTIC,3622,3622,1,SJT,
4,261,BANG,CRASH,1344,1344,1,SJT,
4,262,POOR,BROKE,2585,2585,1,SJT,
4,263,ATTEST,,,,0,SJT,
4,264,CRUMBLY,BRITTLE,1279,1279,1,SJT,
4,265,REFUGE,,,,0,SJT,
4,266,BUYER,CLIENT,2407,2407,1,SJT,
4,267,LED,DIRECT,1011,1011,1,SJT,
4,268,LISTLESS,DETACHED,2515,2515,1,SJT,
4,269,LINING,STUFFING,2608,2608,1,SJT,
4,270,GREETING,SALUTE,2312,2312,1,SJT,
4,271,ORANGE,LEMON,1797,1797,1,SJT,
4,272,REAR,WORN,3491,,0,SJT,
4,273,DIGNIFIED,FEASIBLE,2607,,0,SJT,
4,274,EVENING,MORNING,2407,2407,1,SJT,
4,275,FAILING,WEAKNESS,3228,3228,1,SJT,
4,276,CORRUPT,SINFUL,1972,1972,1,SJT,
4,277,LITERATURE,PUBLICATION,1993,1993,1,SJT,
4,278,COST,PRICE,1367,1367,1,SJT,
4,279,SPEAK,NOTE,2810,2810,1,SJT,
4,280,ROUTINE,PRACTICE,2305,2305,1,SJT,
4,281,WENT,GO,3008,3008,1,SJT,
4,282,SHRIMP,OYSTER,2538,2538,1,SJT,
4,283,EMULSION,TRANSFUSION,3480,,0,SJT,
4,284,TOUGH,SECURE,3082,3082,1,SJT,
4,285,SENTENCE,VERDICT,3189,3189,1,SJT,
4,286,SEDATIVE,,,,0,SJT,
4,287,PANTS,BRIEFS,1511,1511,1,SJT,
4,288,GRASP,CLING,1555,1555,1,SJT,
4,289,JAGUAR,PANTHER,1699,1699,1,SJT,
4,290,DEVELOP,PROGRESS,2598,2598,1,SJT,
4,291,HIDDEN,CONCEALED,2896,2896,1,SJT,
4,292,DISTILLATION,REFINING,1741,1741,1,SJT,
4,293,DEBACLE,FIASCO,3065,3065,1,SJT,
4,294,RAISE,,,,0,SJT,
4,295,FAIR,EQUAL,1951,1951,1,SJT,
4,296,NASTY,FATAL,2088,,0,SJT,
4,297,BELOVED,PRECIOUS,3606,3606,1,SJT,
4,298,EXAMINE,CONTEMPLATE,2646,2646,1,SJT,
4,299,KEPT,STAY,1533,1533,1,SJT,
4,300,COMPRISE,DEPLORE,3491,,0,SJT,
4,301,PROTOCOL,ETIQUETTE,2581,2581,1,SJT,
4,302,RULE,CODE,1258,1258,1,SJT,
4,303,CHOP,SLICE,1397,1397,1,SJT,
4,304,ALGAE,SEAWEED,1543,1543,1,SJT,
4,305,REASON,BASIS,2337,2337,1,SJT,
4,306,INERTIA,,,,0,SJT,
4,307,TYPICAL,ORDINARY,2300,2300,1,SJT,
4,308,CONJECTURE,NOTHINGNESS,3309,,0,SJT,
4,309,SMOOTHING,FLATTEN,2154,2154,1,SJT,
4,310,SPIRITED,VIVACIOUS,4070,4070,1,SJT,
4,311,OUTGOING,EXTROVERT,2438,2438,1,SJT,
4,312,BASIC,SIMPLE,1666,1666,1,SJT,
4,313,THREW,LAUNCH,1543,1543,1,SJT,
4,314,WITNESS,OBSERVE,1149,1149,1,SJT,
4,315,AWARE,CONSCIOUS,2540,2540,1,SJT,
4,316,INTEND,INFORMED,3407,,0,SJT,
4,317,PYRAMID,HEXAGON,4374,4374,1,SJT,
4,318,MATCHSTICK,TOOTHPICK,1961,1961,1,SJT,
4,319,SUMMER,SEASON,1468,1468,1,SJT,
4,320,ENTWINE,INTERLACE,2666,2666,1,SJT,
4,321,GROWTH,RISE,1338,1338,1,SJT,
4,322,ALIAS,PSEUDONYM,3493,3493,1,SJT,
4,323,TON,HEAP,1859,1859,1,SJT,
4,324,PITCHER,BOTTLE,2685,2685,1,SJT,
4,325,CHAMPION,SUPPORTER,3308,3308,1,SJT,
4,326,BUMP,MOUND,3495,3495,1,SJT,
4,327,CURDLE,,,,0,SJT,
4,328,GREY,BLAND,2939,2939,1,SJT,
4,329,ASSIST,STARRING,2624,,0,SJT,
4,330,GASP,BREATH,1943,1943,1,SJT,
4,331,SURPLUS,PROFIT,1722,1722,1,SJT,
4,332,TIDBIT,DAINTY,1762,1762,1,SJT,
4,333,EXTRACT,PROCURE,3616,3616,1,SJT,
4,334,EMERGE,APPEAR,3168,3168,1,SJT,
4,335,TRY,VOTE,3613,,0,SJT,
4,336,EXPLICIT,,,,0,SJT,
4,337,CONSIDERABLE,REASONABLE,3834,3834,1,SJT,
4,338,MOCCASIN,SANDAL,3174,3174,1,SJT,
4,339,PEONY,DAFFODIL,1482,1482,1,SJT,
4,340,SWAN,BEARD,1199,,0,SJT,
4,341,MAY,,,,0,SJT,
4,342,VARYING,SEPARATE,2667,2667,1,SJT,
4,343,CIDER,ALE,1897,1897,1,SJT,
4,344,WEALTHY,RICH,1475,1475,1,SJT,
4,345,PIPING,GUTTER,3069,3069,1,SJT,
4,346,JAUNTY,FIENDISH,3288,,0,SJT,
4,347,CONSTANT,STEADY,3335,3335,1,SJT,
4,348,MEASLES,SHINGLES,1777,1777,1,SJT,
4,349,THOUGHT,MIND,2228,2228,1,SJT,
4,350,IMPROPRIETY,PURIFICATION,3354,,0,SJT,
4,351,LAVISH,PRISTINE,2014,,0,SJT,
4,352,DIFFERENCE,ARGUMENT,2540,2540,1,SJT,
4,353,PRIVATE,QUIET,2453,,0,SJT,
4,354,DEAD,LOST,1705,1705,1,SJT,
4,355,SEA,WAVE,1986,1986,1,SJT,
4,356,LEFT,RIGHT,2028,2028,1,SJT,
4,357,UNSUCCESSFUL,INEFFECTIVE,2224,2224,1,SJT,
4,358,MONTH,WEEK,1806,1806,1,SJT,
4,359,BOIL,STEEP,1876,1876,1,SJT,
4,360,MAINTAIN,REPAIR,3211,3211,1,SJT,
4,361,CONSIDERATE,THOUGHTFULNESS,3877,3877,1,SJT,
4,362,RUB,PINE,3860,,0,SJT,
4,363,ABANDONED,FORSAKEN,3128,3128,1,SJT,
4,364,TELLING,REVEALING,3403,3403,1,SJT,
4,365,REFORMATION,RENOVATION,3406,3406,1,SJT,
4,366,COMPLICATION,IMPEDIMENT,3476,3476,1,SJT,
4,367,TAME,MILD,4376,4376,1,SJT,
4,368,RUBBLE,DEBRIS,4191,4191,1,SJT,
4,369,STOVE,OVEN,2048,2048,1,SJT,
4,370,FRANKINCENSE,SANDALWOOD,1876,1876,1,SJT,
4,371,ELECT,GOVERN,3173,3173,1,SJT,
4,372,LANTERN,CANDLE,3793,3793,1,SJT,
4,373,SEEN,VIEW,2226,2226,1,SJT,
4,374,ARTIST,PAINTER,1586,1586,1,SJT,
4,375,RATING,STATUS,4139,4139,1,SJT,
4,376,ESSAY,THESIS,1321,1321,1,SJT,
4,377,CHRONOLOGY,NARRATIVE,2819,2819,1,SJT,
4,378,WINTER,SUMMER,1653,1653,1,SJT,
4,379,DURATION,ECSTASY,2342,,0,SJT,
4,380,FRACTIOUS,OVERT,4120,,0,SJT,
4,381,PROBLEM,ISSUE,1080,1080,1,SJT,
4,382,COSTUME,OUTFIT,1607,1607,1,SJT,
4,383,PUPIL,,,,0,SJT,
4,384,STRENGTH,WEIGHT,3481,3481,1,SJT,
4,385,FORBADE,RELEARN,3643,,0,SJT,
4,386,VIOLIN,VIOLA,2389,2389,1,SJT,
4,387,MESSY,UNKEMPT,3187,3187,1,SJT,
4,388,NECKLACE,PENDANT,1539,1539,1,SJT,
4,389,BELIEF,OPINION,3174,3174,1,SJT,
4,390,FALLACY,,,,0,SJT,
4,391,EAGLE,HAWK,1302,1302,1,SJT,
4,392,EVOLUTION,TRANSFORMATION,1890,1890,1,SJT,
4,393,PERSUASION,COERCION,1982,1982,1,SJT,
4,394,ROCK,STONE,1336,1336,1,SJT,
4,395,ESSENTIAL,CRITICAL,2684,2684,1,SJT,
4,396,REPRISAL,REDRESS,2881,2881,1,SJT,
4,397,RECRUIT,ENLIST,2912,2912,1,SJT,
4,398,OWNERSHIP,POSSESSION,3013,3013,1,SJT,
4,399,VAN,BUS,1713,1713,1,SJT,
4,400,MODE,TREND,4127,4127,1,SJT,
4,401,OVERBEARING,ARROGANT,2395,2395,1,SJT,
4,402,ALLERGEN,DWARFISM,3417,,0,SJT,
4,403,CREW,TEAM,2615,2615,1,SJT,
4,404,FORMULA,EQUATION,2913,2913,1,SJT,
4,405,EXALT,PERJURE,3788,,0,SJT,
4,406,LIE,FALSE,1737,1737,1,SJT,
4,407,WEARY,DROWSY,3643,3643,1,SJT,
4,408,SURROUND,ENCOMPASS,4226,4226,1,SJT,
4,409,FELL,TRIP,1111,1111,1,SJT,
4,410,DESPOT,TYRANT,3717,3717,1,SJT,
4,411,CHARMING,PLEASANT,1779,1779,1,SJT,
4,412,FACTOR,LESSON,2537,,0,SJT,
4,413,RECENT,MODERN,3589,3589,1,SJT,
4,414,BRONZE,STEEL,1495,1495,1,SJT,
4,415,EQUITY,SUBSIDY,3127,,0,SJT,
4,416,SURGEON,PHYSICIAN,2098,2098,1,SJT,
4,417,KEEN,EAGER,1409,1409,1,SJT,
4,418,TIN,POT,2044,2044,1,SJT,
4,419,KNOLL,RIDGE,4468,4468,1,SJT,
4,420,ALERT,WARNING,3472,3472,1,SJT,
4,421,REVOLTING,OFFENSIVE,2918,2918,1,SJT,
4,422,CAMP,TENT,2159,2159,1,SJT,
4,423,TOLD,SAID,3056,3056,1,SJT,
4,424,PORK,BEEF,1996,1996,1,SJT,
4,425,WEIRD,STRANGE,2969,2969,1,SJT,
4,426,RESTRICTED,,,,0,SJT,
4,427,ANTEATER,,,,0,SJT,
4,428,CONE,,,,0,SJT,
4,429,APPRAISAL,ASSESSMENT,2268,2268,1,SJT,
4,430,CREATURE,MONSTER,1640,1640,1,SJT,
4,431,GYMNASTICS,FLEXIBLE,2339,2339,1,SJT,
4,432,FRONT,BACK,1843,1843,1,SJT,
4,433,SMITTEN,LIKING,1781,1781,1,SJT,
4,434,MISTAKEN,INCORRECT,2470,2470,1,SJT,
4,435,WIDE,SAD,1523,,0,SJT,
4,436,ALLEGORY,ANALOGY,4037,4037,1,SJT,
4,437,ENTERPRISING,UNASSUMING,3989,,0,SJT,
4,438,WINE,PORT,2667,2667,1,SJT,
4,439,INTERIM,INCOMING,3426,,0,SJT,
4,440,GIST,WHENCE,4144,,0,SJT,
4,441,GROUND,FLOOR,1979,1979,1,SJT,
4,442,BITTERNESS,RESENTMENT,1754,1754,1,SJT,
4,443,BEDROOM,KITCHEN,1916,1916,1,SJT,
4,444,BUTTERFLY,VINEGAR,2335,,0,SJT,
4,445,APPARENT,EVIDENT,3068,3068,1,SJT,
4,446,INTENSE,PRECISE,3013,,0,SJT,
4,447,SELLING,TRADING,3002,3002,1,SJT,
4,448,CANAL,INLET,3223,3223,1,SJT,
4,449,UNLIMITED,INVINCIBLE,3801,,0,SJT,
4,450,FROG,TOAD,1864,1864,1,SJT,
4,451,PLACE,WEEK,2553,,0,SJT,
4,452,SCENE,STAGE,3432,3432,1,SJT,
4,453,GONE,PAST,2003,2003,1,SJT,
5,0,RAISE,TREAT,2613,,0,SJT,
5,1,SWAMP,MARSH,1923,1923,1,SJT,
5,2,LEFT,RIGHT,1068,1068,1,SJT,
5,3,BREWING,FERMENT,1460,1460,1,SJT,
5,4,TOLD,SAID,1524,1524,1,SJT,
5,5,MARINADE,SATURATE,1531,1531,1,SJT,
5,6,PEONY,FOLLICLE,1538,,0,SJT,
5,7,PAINTING,DRAWING,1321,1321,1,SJT,
5,8,DEAD,LOST,1384,1384,1,SJT,
5,9,LITERATURE,PUBLICATION,1312,1312,1,SJT,
5,10,HARP,FLUTE,1055,1055,1,SJT,
5,11,RECRUIT,ENLIST,1768,1768,1,SJT,
5,12,RUNNING,MOVING,1890,1890,1,SJT,
5,13,EVOLUTION,TRANSFORMATION,1724,1724,1,SJT,
5,14,FACTOR,ASPECT,1919,1919,1,SJT,
5,15,ELECT,GOVERN,2081,2081,1,SJT,
5,16,PURPOSE,FUNCTION,1542,1542,1,SJT,
5,17,ENIGMA,MYSTERY,1735,1735,1,SJT,
5,18,WEDGE,SLAB,2318,2318,1,SJT,
5,19,FAILING,WEAKNESS,2339,2339,1,SJT,
5,20,JAGUAR,PANTHER,1415,1415,1,SJT,
5,21,ANTEATER,ARMADILLO,1552,1552,1,SJT,
5,22,EVENING,MORNING,1254,1254,1,SJT,
5,23,GIST,CRUX,2065,2065,1,SJT,
5,24,BOIL,STEEP,2703,2703,1,SJT,
5,25,SWIMMING,OCEAN,1785,1785,1,SJT,
5,26,CONSIDERABLE,REASONABLE,2140,2140,1,SJT,
5,27,DUEL,CLASH,1616,1616,1,SJT,
5,28,RATING,STATUS,1368,1368,1,SJT,
5,29,BARGAIN,AUCTION,2119,2119,1,SJT,
5,30,SUDS,SOAP,1138,1138,1,SJT,
5,31,SCENE,STAGE,1229,1229,1,SJT,
5,32,PASSION,ATTEMPT,2422,,0,SJT,
5,33,MODE,TREND,1959,1959,1,SJT,
5,34,ACCURATE,LITERAL,2254,2254,1,SJT,
5,35,TENSE,STIFF,1664,1664,1,SJT,
5,36,CRIME,SIN,2303,2303,1,SJT,
5,37,STRETCH,SPAN,3630,3630,1,SJT,
5,38,SMITTEN,LIKING,1370,1370,1,SJT,
5,39,MANIFEST,EXHIBIT,2565,2565,1,SJT,
5,40,HAM,PORK,1038,1038,1,SJT,
5,41,EXPLICIT,OUTSPOKEN,3046,3046,1,SJT,
5,42,YOUTH,FRESH,1702,1702,1,SJT,
5,43,EXTRACT,PROCURE,1815,1815,1,SJT,
5,44,BAT,KICK,2252,2252,1,SJT,
5,45,FEUDALISM,SUBJUGATION,1577,1577,1,SJT,
5,46,POLKA,SAMBA,1628,1628,1,SJT,
5,47,TEMPLE,MOSQUE,1674,1674,1,SJT,
5,48,CREW,TEAM,2165,2165,1,SJT,
5,49,VOLCANO,ERUPTION,1443,1443,1,SJT,
5,50,SOCK,SHOE,1569,1569,1,SJT,
5,51,FRONT,BACK,1354,1354,1,SJT,
5,52,APRICOT,CANTALOUPE,1610,1610,1,SJT,
5,53,ELECTRIFY,INVIGORATE,1912,1912,1,SJT,
5,54,BLIND,SHADE,1529,1529,1,SJT,
5,55,AUDIT,INSPECT,1464,1464,1,SJT,
5,56,EASYGOING,NONCHALANT,1684,1684,1,SJT,
5,57,ATTRIBUTE,SPECIFY,2881,,0,SJT,
5,58,PLIERS,CHISEL,1705,1705,1,SJT,
5,59,EQUIVALENT,CORRESPONDING,1908,1908,1,SJT,
5,60,HOSTILITY,INCOMPETENCE,2542,,0,SJT,
5,61,SUMMER,SEASON,1819,1819,1,SJT,
5,62,LAVISH,REGAL,2218,2218,1,SJT,
5,63,BASIC,SIMPLE,1747,1747,1,SJT,
5,64,PAIN,HURT,1302,1302,1,SJT,
5,65,FEW,SOME,1489,1489,1,SJT,
5,66,INVOLVED,ABSORBED,1962,1962,1,SJT,
5,67,ROLLING,TUMBLE,1544,1544,1,SJT,
5,68,BROKEN,BEATEN,1471,1471,1,SJT,
5,69,TELLING,REVEALING,1372,1372,1,SJT,
5,70,ESSENTIAL,CRITICAL,2487,2487,1,SJT,
5,71,JAM,CURD,2731,2731,1,SJT,
5,72,GROUND,FLOOR,1935,1935,1,SJT,
5,73,EMERGE,APPEAR,1520,1520,1,SJT,
5,74,WINE,PORT,1970,1970,1,SJT,
5,75,PREFERENCE,LIKING,3105,3105,1,SJT,
5,76,STIMULUS,CATALYST,2130,2130,1,SJT,
5,77,ALLERGEN,IRRITANT,1814,1814,1,SJT,
5,78,COMPLEMENTARY,RECIPROCAL,1900,1900,1,SJT,
5,79,SCISSORS,CLIPPER,1853,1853,1,SJT,
5,80,COMPLICATION,IMPEDIMENT,1905,1905,1,SJT,
5,81,PROPER,CORRECT,1990,1990,1,SJT,
5,82,CAMARADERIE,SOLIDARITY,1428,1428,1,SJT,
5,83,FRACTIOUS,PEEVISH,2121,2121,1,SJT,
5,84,TIDBIT,DAINTY,2873,2873,1,SJT,
5,85,COMPRISE,CONSTITUTE,2888,2888,1,SJT,
5,86,KNOT,LACE,1783,1783,1,SJT,
5,87,GONE,PAST,1520,1520,1,SJT,
5,88,RENT,HIRE,1697,1697,1,SJT,
5,89,SEA,WAVE,1501,1501,1,SJT,
5,90,BID,STRIVE,1878,1878,1,SJT,
5,91,WEARY,DROWSY,1628,1628,1,SJT,
5,92,AUDIENCE,ASSEMBLY,1701,1701,1,SJT,
5,93,SQUIRREL,PIGEON,1488,1488,1,SJT,
5,94,MEASURE,DEGREE,2350,2350,1,SJT,
5,95,BITE,SNACK,2277,2277,1,SJT,
5,96,TULIP,LILY,1370,1370,1,SJT,
5,97,DISCLOSURE,ADMISSION,2080,2080,1,SJT,
5,98,PRIVATE,QUIET,2130,,0,SJT,
5,99,NEWS,PRESS,1381,1381,1,SJT,
5,100,VAN,BUS,1467,1467,1,SJT,
5,101,WON,EARN,1749,1749,1,SJT,
5,102,RESPITE,HEALING,2590,2590,1,SJT,
5,103,DEVELOP,PROGRESS,2293,2293,1,SJT,
5,104,DEBACLE,FIASCO,1813,1813,1,SJT,
5,105,ORANGE,LEMON,1191,1191,1,SJT,
5,106,BUTTERFLY,BUMBLEBEE,1823,1823,1,SJT,
5,107,FRANKINCENSE,SANDALWOOD,1624,1624,1,SJT,
5,108,SPIRITED,VIVACIOUS,2472,2472,1,SJT,
5,109,PITCHER,BOTTLE,2248,2248,1,SJT,
5,110,EFFECT,RESULT,1387,1387,1,SJT,
5,111,SPUR,PROD,2314,2314,1,SJT,
5,112,REPRISAL,REDRESS,1934,1934,1,SJT,
5,113,MOCCASIN,SANDAL,1301,1301,1,SJT,
5,114,INSINCERE,CYNICAL,2876,2876,1,SJT,
5,115,ALIVE,ACTIVE,1423,1423,1,SJT,
5,116,OWN,WANT,2377,2377,1,SJT,
5,117,REAR,STERN,3459,3459,1,SJT,
5,118,REFORMATION,CATHOLICISM,2838,,0,SJT,
5,119,ROCK,OIL,3532,,0,SJT,
5,120,ALERT,WARNING,2295,2295,1,SJT,
5,121,CREATURE,MONSTER,2346,2346,1,SJT,
5,122,WIDE,BROAD,2325,2325,1,SJT,
5,123,MAIL,POST,1434,1434,1,SJT,
5,124,LEARNING,STUDY,1371,1371,1,SJT,
5,125,PROTECTION,SAFETY,1890,1890,1,SJT,
5,126,TRACK,PATH,1732,1732,1,SJT,
5,127,IMPAIR,LESSEN,2483,2483,1,SJT,
5,128,CHOP,SLICE,1844,1844,1,SJT,
5,129,SHED,BARN,2475,2475,1,SJT,
5,130,CURDLE,CONGEAL,1507,1507,1,SJT,
5,131,SAMPLE,SPECIMEN,1862,1862,1,SJT,
5,132,OUTCOME,CONSEQUENCE,1653,1653,1,SJT,
5,133,WORN,AGED,1565,1565,1,SJT,
5,134,ADVANCED,COMPLEX,1899,1899,1,SJT,
5,135,KNOLL,RIDGE,2082,2082,1,SJT,
5,136,NUN,PRIEST,1594,1594,1,SJT,
5,137,SHRIMP,OYSTER,1460,1460,1,SJT,
5,138,HIDDEN,CONCEALED,1610,1610,1,SJT,
5,139,SEDATIVE,NARCOTIC,2050,2050,1,SJT,
5,140,DEPENDABLE,RELIABLE,1543,1543,1,SJT,
5,141,RULE,SCHEME,1688,,0,SJT,
5,142,RELIC,ANTIQUE,1322,1322,1,SJT,
5,143,SPEAK,NOTE,1666,1666,1,SJT,
5,144,OCELOT,BOBCAT,1583,1583,1,SJT,
5,145,SHONE,BEAM,3285,3285,1,SJT,
5,146,MAY,CAN,1983,1983,1,SJT,
5,147,COMPETENT,RELIABLE,1869,1869,1,SJT,
5,148,KEY,LOCK,1280,1280,1,SJT,
5,149,SEEN,VIEW,1635,1635,1,SJT,
5,150,INFLUENCE,LEADERSHIP,1496,1496,1,SJT,
5,151,EXALT,FOREWARN,2190,,0,SJT,
5,152,BEAUTICIAN,HAIRSTYLIST,1564,1564,1,SJT,
5,153,COMIC,SLAPSTICK,1822,1822,1,SJT,
5,154,WET,DAMP,1260,1260,1,SJT,
5,155,UNDERTAKING,ENTERPRISE,1869,1869,1,SJT,
5,156,EQUITY,DECENCY,1538,1538,1,SJT,
5,157,SLIT,GASH,2196,2196,1,SJT,
5,158,BANG,CRASH,1531,1531,1,SJT,
5,159,MASTER,INCREASE,1792,,0,SJT,
5,160,FOUNDATION,ARCHITECT,2664,,0,SJT,
5,161,ABSENT,DISTANCE,1927,1927,1,SJT,
5,162,LANDSCAPE,VISTA,1333,1333,1,SJT,
5,163,OWNERSHIP,POSSESSION,1321,1321,1,SJT,
5,164,GROWTH,RISE,1392,1392,1,SJT,
5,165,FLAMING,IRATE,2989,2989,1,SJT,
5,166,BOAT,SHIP,1230,1230,1,SJT,
5,167,DISTILLATION,REFINING,1437,1437,1,SJT,
5,168,BUYER,CLIENT,2053,2053,1,SJT,
5,169,KITTEN,FELINE,1525,1525,1,SJT,
5,170,CRUSH,SQUEEZE,2015,2015,1,SJT,
5,171,SUFFIX,GRAMMAR,2726,2726,1,SJT,
5,172,SOCIETY,COMMUNITY,1506,1506,1,SJT,
5,173,RAY,BEAM,1319,1319,1,SJT,
5,174,OWL,BAT,1931,1931,1,SJT,
5,175,BITTERNESS,RESENTMENT,2452,2452,1,SJT,
5,176,ABACUS,CALCULATOR,1571,1571,1,SJT,
5,177,GRASP,CLING,1361,1361,1,SJT,
5,178,DEITY,DIVINITY,1153,1153,1,SJT,
5,179,MIST,FOG,1179,1179,1,SJT,
5,180,PERFORMANCE,ACHIEVEMENT,1671,1671,1,SJT,
5,181,TESTING,LEARNING,1399,1399,1,SJT,
5,182,CLEAN,WASH,2240,2240,1,SJT,
5,183,KEPT,STAY,2166,2166,1,SJT,
5,184,PROBLEM,ISSUE,1181,1181,1,SJT,
5,185,FENCING,SALUTE,3744,,0,SJT,
5,186,FAUNA,PLUMAGE,2265,,0,SJT,
5,187,LOVING,ADORE,1343,1343,1,SJT,
5,188,GRASS,BUSH,1561,1561,1,SJT,
5,189,UNLIMITED,UNRESTRICTED,1935,1935,1,SJT,
5,190,ZERO,NIL,1359,1359,1,SJT,
5,191,WEEPING,SOBBING,1340,1340,1,SJT,
5,192,INSPIRED,MOTIVATE,1616,1616,1,SJT,
5,193,LOBSTER,SHRIMP,1380,1380,1,SJT,
5,194,OUTGOING,EXTROVERT,1234,1234,1,SJT,
5,195,PREVIOUS,PRIOR,1306,1306,1,SJT,
5,196,MATCHSTICK,TOOTHPICK,1913,1913,1,SJT,
5,197,WAGER,GAMBLE,1354,1354,1,SJT,
5,198,SWAN,GOOSE,1233,1233,1,SJT,
5,199,DISBELIEVING,INCREDULOUS,2124,2124,1,SJT,
5,200,LISTLESS,DETACHED,1946,1946,1,SJT,
5,201,TEACH,COACH,1758,1758,1,SJT,
5,202,PIPING,GUTTER,1255,1255,1,SJT,
5,203,ERODE,DECOMPOSE,1991,1991,1,SJT,
5,204,KID,YOUTH,1230,1230,1,SJT,
5,205,LETTERBOX,CUBBYHOLE,2206,2206,1,SJT,
5,206,PLACE,PUT,3255,3255,1,SJT,
5,207,INTEND,ASPIRE,2932,2932,1,SJT,
5,208,MADNESS,HECTIC,1600,1600,1,SJT,
5,209,COST,PRICE,1398,1398,1,SJT,
5,210,INTERESTING,ENTERTAINING,1876,1876,1,SJT,
5,211,FERAL,BARBARIC,1608,1608,1,SJT,
5,212,DISTANCE,APART,1287,1287,1,SJT,
5,213,MEASLES,SHINGLES,1386,1386,1,SJT,
5,214,ABANDONED,FORSAKEN,1776,1776,1,SJT,
5,215,BELOVED,PRECIOUS,2867,2867,1,SJT,
5,216,PATTERN,DESIGN,1822,1822,1,SJT,
5,217,TWINKLE,DAZZLE,1288,1288,1,SJT,
5,218,BELIEF,OPINION,2036,2036,1,SJT,
5,219,INTERIM,IMPROMPTU,2316,2316,1,SJT,
5,220,PAIR,COUPLE,1212,1212,1,SJT,
5,221,CORRUPT,SINFUL,2396,2396,1,SJT,
5,222,SCENT,SMELT,1166,1166,1,SJT,
5,223,CIDER,ALE,1309,1309,1,SJT,
5,224,EAGLE,HAWK,1183,1183,1,SJT,
5,225,WINTER,SUMMER,1143,1143,1,SJT,
5,226,GYMNASTICS,FLEXIBLE,1736,1736,1,SJT,
5,227,STRENGTH,WEIGHT,1339,1339,1,SJT,
5,228,MOMENTOUS,PARAMOUNT,1982,1982,1,SJT,
5,229,CLOTHING,GARMENT,1267,1267,1,SJT,
5,230,BINOCULAR,MONOCLE,1581,1581,1,SJT,
5,231,TRY,VOTE,2645,,0,SJT,
5,232,KIND,GOOD,2122,2122,1,SJT,
5,233,PASS,KEPT,2397,,0,SJT,
5,234,CARBOHYDRATE,CELLULOSE,2038,2038,1,SJT,
5,235,SURGEON,PHYSICIAN,1131,1131,1,SJT,
5,236,VARYING,SEPARATE,1997,1997,1,SJT,
5,237,INERTIA,SECLUSION,2285,,0,SJT,
5,238,FIXED,FOUGHT,2661,,0,SJT,
5,239,SINGLE,ALONE,1818,1818,1,SJT,
5,240,ADVANTAGE,BENEFIT,1209,1209,1,SJT,
5,241,PYRAMID,HEXAGON,2204,2204,1,SJT,
5,242,RUB,PET,2908,2908,1,SJT,
5,243,ENTERPRISING,INGENIOUS,1701,1701,1,SJT,
5,244,LANTERN,CANDLE,1246,1246,1,SJT,
5,245,ALGAE,SEAWEED,1520,1520,1,SJT,
5,246,FIBULA,PATELLA,1698,1698,1,SJT,
5,247,WENT,GO,1283,1283,1,SJT,
5,248,SURPLUS,PROFIT,1580,1580,1,SJT,
5,249,KNEW,SENSE,2301,2301,1,SJT,
5,250,ROUND,CURVE,1269,1269,1,SJT,
5,251,TAME,MILD,2080,2080,1,SJT,
5,252,APPRAISAL,ASSESSMENT,1858,1858,1,SJT,
5,253,REMARKABLE,SPECTACULAR,2925,2925,1,SJT,
5,254,BEAT,HIT,1440,1440,1,SJT,
5,255,PICKLE,RELISH,1364,1364,1,SJT,
5,256,LIE,FALSE,1525,1525,1,SJT,
5,257,BUILDING,OFFICE,1360,1360,1,SJT,
5,258,OPTIMISTIC,COMFORTING,2613,2613,1,SJT,
5,259,CONSIDERATE,THOUGHTFULNESS,2095,2095,1,SJT,
5,260,PROPERTY,SOMEBODY,2056,,0,SJT,
5,261,VARIED,DIVERSE,2374,2374,1,SJT,
5,262,BRONZE,STEEL,2536,2536,1,SJT,
5,263,WASHER,GASKET,2903,2903,1,SJT,
5,264,TENDENCY,LIKELIHOOD,2205,2205,1,SJT,
5,265,MUD,DIRT,1575,1575,1,SJT,
5,266,MAINTAIN,REPAIR,2224,2224,1,SJT,
5,267,MONTH,WEEK,1621,1621,1,SJT,
5,268,GASP,BREATH,1426,1426,1,SJT,
5,269,PROTOCOL,ETIQUETTE,2269,2269,1,SJT,
5,270,FROG,TOAD,1104,1104,1,SJT,
5,271,SELLING,WINNING,1355,,0,SJT,
5,272,TRIBUNAL,INQUIRY,1782,1782,1,SJT,
5,273,IMMENSE,LASTING,1556,,0,SJT,
5,274,SOCIALIST,LIBERAL,1849,1849,1,SJT,
5,275,HORSE,GOAT,1326,1326,1,SJT,
5,276,THREW,CHASE,2022,,0,SJT,
5,277,ROAD,LANE,965,965,1,SJT,
5,278,FOREST,JUNGLE,1545,1545,1,SJT,
5,279,REST,SLEPT,1238,1238,1,SJT,
5,280,JOLT,FRIGHT,1835,1835,1,SJT,
5,281,REASON,BASIS,2231,2231,1,SJT,
5,282,NOPE,NAY,1301,1301,1,SJT,
5,283,NASTY,SOUR,2411,2411,1,SJT,
5,284,IRRITATION,INCONVENIENCE,4111,4111,1,SJT,
5,285,FERTILE,FRUITFUL,1679,1679,1,SJT,
5,286,YODEL,CAROL,1766,1766,1,SJT,
5,287,BABY,INFANT,1904,1904,1,SJT,
5,288,UNITE,COMPOSED,3412,,0,SJT,
5,289,INDENT,INCISE,2997,2997,1,SJT,
5,290,DIGNIFIED,MAJESTIC,2181,2181,1,SJT,
5,291,OATH,SWEAR,1100,1100,1,SJT,
5,292,AVAILABLE,CONVENIENT,1877,1877,1,SJT,
5,293,JAUNTY,SPRY,1679,1679,1,SJT,
5,294,ALIAS,PSEUDONYM,1167,1167,1,SJT,
5,295,BEDROOM,KITCHEN,1255,1255,1,SJT,
5,296,NEAR,MOVE,2371,2371,1,SJT,
5,297,ORDINARY,NECESSARY,2249,,0,SJT,
5,298,DANCING,BALLROOM,1749,1749,1,SJT,
5,299,BROOM,RAKE,2202,2202,1,SJT,
5,300,ENACT,ORDAIN,2748,2748,1,SJT,
5,301,CAUSE,RATE,975,,0,SJT,
5,302,WITNESS,OBSERVE,1642,1642,1,SJT,
5,303,FATE,,,,0,SJT,
5,304,WILLING,,,,0,SJT,
5,305,DRAWING,OUTLINE,1436,1436,1,SJT,
5,306,VIOLIN,VIOLA,1433,1433,1,SJT,
5,307,KITE,TOY,3592,3592,1,SJT,
5,308,LINING,STUFFING,2645,2645,1,SJT,
5,309,FINE,YES,1624,1624,1,SJT,
5,310,WRONG,BAD,1358,1358,1,SJT,
5,311,BYLAW,REGULATE,1646,1646,1,SJT,
5,312,EFFORT,ATTEMPT,2477,2477,1,SJT,
5,313,DULLNESS,BOREDOM,1414,1414,1,SJT,
5,314,RUNG,TREAD,2047,2047,1,SJT,
5,315,CRUSTACEAN,SHELLFISH,1410,1410,1,SJT,
5,316,NECKLACE,PENDANT,1177,1177,1,SJT,
5,317,CONSTANT,STEADY,1232,1232,1,SJT,
5,318,PURCHASE,SOLD,1399,1399,1,SJT,
5,319,DISPENSE,BESTOW,2214,2214,1,SJT,
5,320,DESPOT,TYRANT,1864,1864,1,SJT,
5,321,FUNCTION,PURPOSE,1316,1316,1,SJT,
5,322,NICE,SWEET,1616,1616,1,SJT,
5,323,JOIN,BOND,2079,2079,1,SJT,
5,324,GREETING,SALUTE,1814,1814,1,SJT,
5,325,DROWSY,WEARY,1734,1734,1,SJT,
5,326,PROMISING,POTENTIAL,1487,1487,1,SJT,
5,327,PUPIL,SCHOLAR,1351,1351,1,SJT,
5,328,EXAMINE,CONTEMPLATE,1908,1908,1,SJT,
5,329,NECK,THROAT,1203,1203,1,SJT,
5,330,POOR,BROKE,1374,1374,1,SJT,
5,331,CANAL,INLET,1701,1701,1,SJT,
5,332,CHAMPION,OPENING,2503,,0,SJT,
5,333,COAST,SHORE,1074,1074,1,SJT,
5,334,KNIFE,BLADE,1960,1960,1,SJT,
5,335,WITHDRAWN,DETACHED,1253,1253,1,SJT,
5,336,VERDICT,OUTCOME,1609,1609,1,SJT,
5,337,BACTERIA,ORGANISM,1264,1264,1,SJT,
5,338,FAIR,EQUAL,2184,2184,1,SJT,
5,339,DWELLING,ABODE,1957,1957,1,SJT,
5,340,CHARMING,PLEASANT,1471,1471,1,SJT,
5,341,FORMULA,EQUATION,1350,1350,1,SJT,
5,342,EDGE,LIP,2222,2222,1,SJT,
5,343,ESSAY,THESIS,1537,1537,1,SJT,
5,344,RESOLVE,SETTLE,2468,2468,1,SJT,
5,345,SMOOTHING,FLATTEN,2100,2100,1,SJT,
5,346,CAMP,TENT,1030,1030,1,SJT,
5,347,DONE,READY,2978,2978,1,SJT,
5,348,SCORE,STRIKE,2745,2745,1,SJT,
5,349,PRISONER,INFECTION,1778,,0,SJT,
5,350,TOKEN,SYMBOL,2309,2309,1,SJT,
5,351,WEATHER,CLIMATE,1114,1114,1,SJT,
5,352,REFUGE,ASYLUM,2075,2075,1,SJT,
5,353,ENTWINE,INTERLACE,1698,1698,1,SJT,
5,354,NOSE,EAR,1286,1286,1,SJT,
5,355,OVERBEARING,ARROGANT,2331,2331,1,SJT,
5,356,FALLACY,DELUSION,2390,2390,1,SJT,
5,357,DECEPTION,BETRAYAL,3684,3684,1,SJT,
5,358,ALLEGORY,ANALOGY,1421,1421,1,SJT,
5,359,CONJECTURE,SPECULATION,1460,1460,1,SJT,
5,360,FRESH,NEW,1021,1021,1,SJT,
5,361,ROUTINE,PRACTICE,2918,2918,1,SJT,
5,362,TOUGH,SECURE,1595,1595,1,SJT,
5,363,LIVE,START,3040,3040,1,SJT,
5,364,PORK,BEEF,1493,1493,1,SJT,
5,365,CONE,SPIRE,1720,1720,1,SJT,
5,366,TON,HEAP,1750,1750,1,SJT,
5,367,ASHEN,PASTY,2328,2328,1,SJT,
5,368,PLUM,PEACH,1144,1144,1,SJT,
5,369,LIT,FLAME,1932,1932,1,SJT,
5,370,DISAPPOINTED,DISCOURAGING,1653,1653,1,SJT,
5,371,FALLING,DROPPING,1386,1386,1,SJT,
5,372,UNSUCCESSFUL,INEFFECTIVE,1319,1319,1,SJT,
5,373,KEEN,EAGER,2744,2744,1,SJT,
5,374,ANT,BUG,1367,1367,1,SJT,
5,375,PERCH,ROOST,2731,2731,1,SJT,
5,376,PASSING,TRANSFER,1772,1772,1,SJT,
5,377,WAIL,HOWL,1766,1766,1,SJT,
5,378,RESTRICTED,FINITE,1877,1877,1,SJT,
5,379,MISCONCEPTION,MODERATION,3202,,0,SJT,
5,380,BED,LOT,2272,2272,1,SJT,
5,381,LICE,FLEA,1349,1349,1,SJT,
5,382,CONDITION,REQUIREMENT,2609,2609,1,SJT,
5,383,PERSUASION,COERCION,2686,2686,1,SJT,
5,384,JEWEL,GEM,1393,1393,1,SJT,
5,385,CHILLY,FROSTY,1541,1541,1,SJT,
5,386,TIN,POT,1283,1283,1,SJT,
5,387,SLAP,SMACK,1186,1186,1,SJT,
5,388,GREY,BLAND,1254,1254,1,SJT,
5,389,TRESTLE,PEDESTAL,1925,1925,1,SJT,
5,390,RECENT,MODERN,1888,1888,1,SJT,
5,391,LATTER,FORMER,1920,1920,1,SJT,
5,392,RUBBLE,DEBRIS,1248,1248,1,SJT,
5,393,CRUMBLY,LUMPY,1868,,0,SJT,
5,394,WELL,GOOD,2046,2046,1,SJT,
5,395,REVOLTING,OFFENSIVE,2255,2255,1,SJT,
5,396,FORBADE,VETO,1783,1783,1,SJT,
5,397,FORETHOUGHT,PRUDENCE,2036,2036,1,SJT,
5,398,ADULTERY,FIDELITY,1712,1712,1,SJT,
5,399,WEALTHY,RICH,1491,1491,1,SJT,
5,400,INTENSE,PRECISE,2323,,0,SJT,
5,401,TREE,BRANCH,1622,1622,1,SJT,
5,402,WILD,ROUGH,1522,1522,1,SJT,
5,403,MISTAKEN,INCORRECT,2751,2751,1,SJT,
5,404,PANTS,BRIEFS,1480,1480,1,SJT,
5,405,FRIVOLOUS,FACETIOUS,2422,2422,1,SJT,
5,406,LED,DIRECT,2283,2283,1,SJT,
5,407,CHRONOLOGY,NARRATIVE,1477,1477,1,SJT,
5,408,HOPELESSNESS,PESSIMISTIC,1342,1342,1,SJT,
5,409,TELEPHONE,MAGAZINE,1575,,0,SJT,
5,410,BUREAU,AGENCY,1160,1160,1,SJT,
5,411,WEIRD,STRANGE,1320,1320,1,SJT,
5,412,DIFFERENCE,ARGUMENT,2775,2775,1,SJT,
5,413,RABBIT,SQUIRREL,1261,1261,1,SJT,
5,414,AWARE,CONSCIOUS,1214,1214,1,SJT,
5,415,ATTEST,SIGNIFY,3310,3310,1,SJT,
5,416,MESSY,UNKEMPT,1785,1785,1,SJT,
5,417,BREEZE,DRAUGHT,1371,1371,1,SJT,
5,418,BUMP,MOUND,2641,2641,1,SJT,
5,419,RIDDLE,PUZZLE,1195,1195,1,SJT,
5,420,GUM,GLUE,1618,1618,1,SJT,
5,421,MOLECULE,ELEMENT,1855,1855,1,SJT,
5,422,SURROUND,CONQUER,1281,,0,SJT,
5,423,EMULSION,SUSPENSION,2157,2157,1,SJT,
5,424,ARTIST,PAINTER,1591,1591,1,SJT,
5,425,UNDOING,OVERTHROW,1871,1871,1,SJT,
5,426,ROOT,SEED,1981,1981,1,SJT,
5,427,SENTENCE,VERDICT,2575,2575,1,SJT,
5,428,VEAL,FOAL,1651,1651,1,SJT,
5,429,BY,WITH,2115,,0,SJT,
5,430,VALLEY,MOUNTAIN,1351,1351,1,SJT,
5,431,OCCUR,HAPPEN,1383,1383,1,SJT,
5,432,THOUGHT,MIND,2419,2419,1,SJT,
5,433,FELL,TRIP,2321,2321,1,SJT,
5,434,CEILING,ATTIC,1307,1307,1,SJT,
5,435,TYPICAL,ORDINARY,1245,1245,1,SJT,
5,436,SQUARE,SHAPE,2961,2961,1,SJT,
5,437,NORMAL,STANDARD,1542,1542,1,SJT,
5,439,APPARENT,EVIDENT,1465,1465,1,SJT,
5,440,MUST,SHOULD,1530,1530,1,SJT,
5,441,COSTUME,OUTFIT,1298,1298,1,SJT,
5,442,GALLANT,VALIANT,1436,1436,1,SJT,
5,443,CITY,TOWN,1064,1064,1,SJT,
5,444,IMPROPRIETY,INAPPROPRIATE,3040,3040,1,SJT,
5,445,STOVE,OVEN,1010,1010,1,SJT,
5,446,IRKSOME,TEDIOUS,1613,1613,1,SJT,
5,447,DOWNCAST,WRETCHED,1334,1334,1,SJT,
5,448,FIREPLACE,CHIMNEY,1436,1436,1,SJT,
5,449,ASSIST,PROCEED,3222,,0,SJT,
5,450,DURATION,INTERVAL,1487,1487,1,SJT,
5,451,TUB,TANK,1328,1328,1,SJT,
5,452,FISHING,NET,1069,1069,1,SJT,
5,453,NEMESIS,COMBATANT,2347,2347,1,SJT,
6,0,NECKLACE,PENDANT,1657,1657,1,SJT,
6,1,CITY,TOWN,1372,1372,1,SJT,
6,2,ROOT,SEED,1384,1384,1,SJT,
6,3,MASTER,OWNER,1821,1821,1,SJT,
6,4,DUEL,CLASH,2107,2107,1,SJT,
6,5,ATTEST,ASTOUND,3256,,0,SJT,
6,6,BANG,CRASH,1417,1417,1,SJT,
6,7,YOUTH,FRESH,1603,1603,1,SJT,
6,8,EXTRACT,PROCURE,3886,3886,1,SJT,
6,9,FELL,TRIP,1578,1578,1,SJT,
6,10,TELEPHONE,COMPUTER,1927,1927,1,SJT,
6,11,MESSY,UNKEMPT,1995,1995,1,SJT,
6,12,OATH,SWEAR,1997,1997,1,SJT,
6,13,BY,WITH,4065,,0,SJT,
6,14,WENT,GO,1884,1884,1,SJT,
6,15,TAME,,,,0,SJT,
6,16,KNOT,LACE,1804,1804,1,SJT,
6,17,OWL,BAT,2172,2172,1,SJT,
6,18,HIDDEN,CONCEALED,1376,1376,1,SJT,
6,19,ABACUS,ELEVATOR,2281,,0,SJT,
6,20,HORSE,GOAT,1863,1863,1,SJT,
6,21,GROWTH,RISE,2125,2125,1,SJT,
6,22,PAINTING,DRAWING,1529,1529,1,SJT,
6,23,BUTTERFLY,BUMBLEBEE,1379,1379,1,SJT,
6,24,NEWS,PRESS,1645,1645,1,SJT,
6,25,WITNESS,OBSERVE,1904,1904,1,SJT,
6,26,FRANKINCENSE,ATRIUM,3256,,0,SJT,
6,27,MODE,TREND,2529,2529,1,SJT,
6,28,CLOTHING,GARMENT,1728,1728,1,SJT,
6,29,CHILLY,FROSTY,1149,1149,1,SJT,
6,30,ADULTERY,FIDELITY,2499,2499,1,SJT,
6,31,VOLCANO,ERUPTION,1683,1683,1,SJT,
6,32,DECEPTION,BETRAYAL,2246,2246,1,SJT,
6,33,REST,SLEPT,1726,1726,1,SJT,
6,34,SQUIRREL,PIGEON,1574,1574,1,SJT,
6,35,RAISE,KILL,1869,,0,SJT,
6,36,SOCIALIST,LIBERAL,3648,3648,1,SJT,
6,37,CIDER,ALE,1935,1935,1,SJT,
6,38,FEUDALISM,SUBJUGATION,2855,2855,1,SJT,
6,39,PUPIL,SCHOLAR,2971,2971,1,SJT,
6,40,SENTENCE,VERDICT,2929,2929,1,SJT,
6,41,BELIEF,OPINION,2476,2476,1,SJT,
6,42,AWARE,CONSCIOUS,1841,1841,1,SJT,
6,43,EQUIVALENT,CORRESPONDING,2695,2695,1,SJT,
6,44,CURDLE,CONGEAL,2802,2802,1,SJT,
6,45,ANT,BUG,1611,1611,1,SJT,
6,46,SHRIMP,OYSTER,1188,1188,1,SJT,
6,47,UNDOING,OVERTHROW,1816,1816,1,SJT,
6,48,JAUNTY,FIENDISH,2467,,0,SJT,
6,49,EMULSION,TRANSFUSION,2654,,0,SJT,
6,50,BABY,INFANT,1624,1624,1,SJT,
6,51,ENTERPRISING,,,,0,SJT,
6,52,BROOM,RAKE,1542,1542,1,SJT,
6,53,FROG,TOAD,1222,1222,1,SJT,
6,54,SEDATIVE,NARCOTIC,1676,1676,1,SJT,
6,55,CHRONOLOGY,STIPULATION,2723,,0,SJT,
6,56,COSTUME,OUTFIT,1588,1588,1,SJT,
6,57,FALLACY,MALPRACTICE,2466,,0,SJT,
6,58,APRICOT,CANTALOUPE,1578,1578,1,SJT,
6,59,GREETING,SALUTE,2234,2234,1,SJT,
6,60,RESTRICTED,FINITE,3641,3641,1,SJT,
6,61,FOREST,JUNGLE,1644,1644,1,SJT,
6,62,EXPLICIT,PRAGMATIC,3824,,0,SJT,
6,63,GRASP,CLING,1834,1834,1,SJT,
6,64,MARINADE,SATURATE,1590,1590,1,SJT,
6,65,SELLING,TRADING,3287,3287,1,SJT,
6,66,ADVANCED,COMPLEX,1821,1821,1,SJT,
6,67,UNSUCCESSFUL,INEFFECTIVE,1878,1878,1,SJT,
6,68,MOCCASIN,SANDAL,1621,1621,1,SJT,
6,69,ALIAS,ADJOURNMENT,1936,,0,SJT,
6,70,MEASLES,SHINGLES,1273,1273,1,SJT,
6,71,YODEL,CAROL,1971,1971,1,SJT,
6,72,DEPENDABLE,RELIABLE,2570,2570,1,SJT,
6,73,CONSTANT,STEADY,1644,1644,1,SJT,
6,74,LITERATURE,PUBLICATION,2596,2596,1,SJT,
6,75,PLACE,NAME,1980,,0,SJT,
6,76,EAGLE,HAWK,1648,1648,1,SJT,
6,77,KITE,TOY,2788,2788,1,SJT,
6,78,PASSION,DESIRE,1362,1362,1,SJT,
6,79,KNEW,SENSE,1969,1969,1,SJT,
6,80,ERODE,OUTSTRETCHED,2341,,0,SJT,
6,81,ALLERGEN,IRRITANT,1613,1613,1,SJT,
6,82,DEVELOP,PROGRESS,1518,1518,1,SJT,
6,83,DESPOT,DRENCHING,2856,,0,SJT,
6,84,FINE,SAME,2446,,0,SJT,
6,85,SUMMER,SEASON,3187,3187,1,SJT,
6,86,MONTH,WEEK,1731,1731,1,SJT,
6,87,FERAL,BARBARIC,1997,1997,1,SJT,
6,88,KIND,GOOD,1521,1521,1,SJT,
6,89,STIMULUS,CATALYST,2015,2015,1,SJT,
6,90,PYRAMID,HEXAGON,2159,2159,1,SJT,
6,91,PRIVATE,SPECIAL,3959,3959,1,SJT,
6,92,BROKEN,BEATEN,3977,3977,1,SJT,
6,93,DULLNESS,BOREDOM,2145,2145,1,SJT,
6,94,CHARMING,PLEASANT,1451,1451,1,SJT,
6,95,PEONY,DAFFODIL,2198,2198,1,SJT,
6,96,TOLD,SAID,1053,1053,1,SJT,
6,97,MISTAKEN,INCORRECT,1271,1271,1,SJT,
6,98,ABANDONED,BEGUILING,3868,,0,SJT,
6,99,SURGEON,PHYSICIAN,1759,1759,1,SJT,
6,100,RATING,STATUS,2199,2199,1,SJT,
6,101,RABBIT,SQUIRREL,1626,1626,1,SJT,
6,102,CONDITION,BENEFIT,3316,,0,SJT,
6,103,JOIN,BOND,3216,3216,1,SJT,
6,104,TESTING,LEARNING,3878,3878,1,SJT,
6,105,EFFECT,RESULT,1586,1586,1,SJT,
6,106,DONE,READY,1921,1921,1,SJT,
6,107,BITTERNESS,RESENTMENT,3638,3638,1,SJT,
6,108,TEMPLE,MOSQUE,1786,1786,1,SJT,
6,109,POLKA,SAMBA,2277,2277,1,SJT,
6,110,PASSING,TRANSFER,3112,3112,1,SJT,
6,111,SLAP,SMACK,1820,1820,1,SJT,
6,112,HOPELESSNESS,PESSIMISTIC,2029,2029,1,SJT,
6,113,GIST,CRUX,3721,3721,1,SJT,
6,114,DISTANCE,APART,2213,2213,1,SJT,
6,115,AVAILABLE,CONVENIENT,3159,3159,1,SJT,
6,116,BINOCULAR,MONOCLE,1747,1747,1,SJT,
6,117,CAUSE,HELL,2754,,0,SJT,
6,118,CREATURE,MONSTER,1344,1344,1,SJT,
6,119,GYMNASTICS,FLEXIBLE,1866,1866,1,SJT,
6,120,DEBACLE,MOCKERY,4187,,0,SJT,
6,121,EQUITY,SUBSIDY,3491,,0,SJT,
6,122,WEEPING,SOBBING,2139,2139,1,SJT,
6,123,SPEAK,NOTE,2043,2043,1,SJT,
6,124,PURCHASE,SOLD,1610,1610,1,SJT,
6,125,BOAT,SHIP,1378,1378,1,SJT,
6,126,SCENT,SMELT,1243,1243,1,SJT,
6,127,GRASS,BUSH,1628,1628,1,SJT,
6,128,FENCING,SALUTE,2272,,0,SJT,
6,129,DWELLING,ABODE,4103,4103,1,SJT,
6,130,ANTEATER,ARMADILLO,1882,1882,1,SJT,
6,131,DANCING,BALLROOM,2098,2098,1,SJT,
6,132,WAGER,GAMBLE,3341,3341,1,SJT,
6,133,HARP,FLUTE,1776,1776,1,SJT,
6,134,PROPERTY,COMPANY,3625,,0,SJT,
6,135,UNDERTAKING,CONSOLATION,3643,,0,SJT,
6,136,WEALTHY,RICH,3790,3790,1,SJT,
6,137,MATCHSTICK,TOOTHPICK,2233,2233,1,SJT,
6,138,ROUND,CURVE,1470,1470,1,SJT,
6,139,SUDS,SOAP,1253,1253,1,SJT,
6,140,CANAL,INLET,2632,2632,1,SJT,
6,141,ATTRIBUTE,ALLOCATE,2273,2273,1,SJT,
6,142,BAT,KICK,3098,3098,1,SJT,
6,143,WILD,ROUGH,2513,2513,1,SJT,
6,144,TOKEN,SYMBOL,3437,3437,1,SJT,
6,145,STRENGTH,WEIGHT,2624,2624,1,SJT,
6,146,HAM,PORK,1411,1411,1,SJT,
6,147,RAY,GRANT,3173,,0,SJT,
6,148,OUTGOING,,,,0,SJT,
6,149,MAY,CAN,3611,3611,1,SJT,
6,150,WET,DAMP,1853,1853,1,SJT,
6,151,CRUSTACEAN,SHELLFISH,1876,1876,1,SJT,
6,152,INTEND,PROVING,3369,,0,SJT,
6,153,RUBBLE,DEBRIS,2670,2670,1,SJT,
6,154,INSINCERE,VERBATIM,2750,,0,SJT,
6,155,VARYING,VERIFY,2118,,0,SJT,
6,156,PROTECTION,SAFETY,2095,2095,1,SJT,
6,157,CHOP,SLICE,1834,1834,1,SJT,
6,158,ESSAY,THESIS,2048,2048,1,SJT,
6,159,FRACTIOUS,OVERT,2545,,0,SJT,
6,160,KNIFE,BLADE,1851,1851,1,SJT,
6,161,NUN,PRIEST,1444,1444,1,SJT,
6,162,TRIBUNAL,INQUIRY,3475,3475,1,SJT,
6,163,TYPICAL,ORDINARY,1826,1826,1,SJT,
6,164,CAMP,TENT,1176,1176,1,SJT,
6,165,FORETHOUGHT,FALLBACK,3065,,0,SJT,
6,166,SMITTEN,DISMAYED,2133,,0,SJT,
6,167,FAILING,WEAKNESS,4397,4397,1,SJT,
6,168,AUDIENCE,ASSEMBLY,1859,1859,1,SJT,
6,169,IRRITATION,INCONVENIENCE,3802,3802,1,SJT,
6,170,MEASURE,,,,0,SJT,
6,171,CHAMPION,SUPPORTER,2092,2092,1,SJT,
6,172,COST,PRICE,1539,1539,1,SJT,
6,173,TUB,TANK,1373,1373,1,SJT,
6,174,SAMPLE,SOUVENIR,4161,,0,SJT,
6,175,APPRAISAL,,,,0,SJT,
6,176,MUST,SHOULD,2832,2832,1,SJT,
6,177,FALLING,DROPPING,3091,3091,1,SJT,
6,178,SINGLE,ALONE,1157,1157,1,SJT,
6,179,IMPAIR,SURMISE,4246,,0,SJT,
6,180,NECK,THROAT,2352,2352,1,SJT,
6,181,PANTS,BRIEFS,2396,2396,1,SJT,
6,182,PLUM,PEACH,1489,1489,1,SJT,
6,183,PRISONER,ASSASSIN,2575,2575,1,SJT,
6,184,GUM,GLUE,2107,2107,1,SJT,
6,185,ROUTINE,PRACTICE,1979,1979,1,SJT,
6,186,BELOVED,PRIVILEGED,2807,,0,SJT,
6,187,MUD,DIRT,1715,1715,1,SJT,
6,188,TEACH,COACH,3957,3957,1,SJT,
6,189,PIPING,DUSTING,2295,,0,SJT,
6,190,TRACK,POST,3442,,0,SJT,
6,191,INSPIRED,RECTIFY,2836,,0,SJT,
6,192,ALLEGORY,DISINCENTIVE,3350,,0,SJT,
6,193,NICE,SWEET,2605,2605,1,SJT,
6,194,FRESH,,,,0,SJT,
6,195,PAIN,HURT,1609,1609,1,SJT,
6,196,EXALT,REVERE,2265,2265,1,SJT,
6,197,PATTERN,DESIGN,1524,1524,1,SJT,
6,198,TIDBIT,,,,0,SJT,
6,199,FLAMING,BUNTING,1631,,0,SJT,
6,200,BACTERIA,ORGANISM,2418,2418,1,SJT,
6,201,TELLING,ENTERTAIN,3334,,0,SJT,
6,202,COMIC,SLAPSTICK,1849,1849,1,SJT,
6,203,FIREPLACE,CHIMNEY,1605,1605,1,SJT,
6,204,JEWEL,GEM,1482,1482,1,SJT,
6,205,DISAPPOINTED,DISCOURAGING,3250,3250,1,SJT,
6,206,ALERT,WARNING,1644,1644,1,SJT,
6,207,LOBSTER,SHRIMP,1358,1358,1,SJT,
6,208,PERFORMANCE,ACHIEVEMENT,4061,4061,1,SJT,
6,209,OCELOT,OCTAGON,1825,,0,SJT,
6,210,FEW,SOME,2239,2239,1,SJT,
6,211,COAST,SHORE,1405,1405,1,SJT,
6,212,IRKSOME,AVOWED,1594,,0,SJT,
6,213,PLIERS,CHISEL,2016,2016,1,SJT,
6,214,DOWNCAST,WRETCHED,2421,2421,1,SJT,
6,215,LIVE,START,3766,3766,1,SJT,
6,216,TULIP,LILY,1102,1102,1,SJT,
6,217,BREEZE,,,,0,SJT,
6,218,EVENING,MORNING,1592,1592,1,SJT,
6,219,WEATHER,CLIMATE,2906,2906,1,SJT,
6,220,ELECT,GOVERN,2227,2227,1,SJT,
6,221,RESPITE,ESTEEM,1943,,0,SJT,
6,222,VEAL,FOAL,2426,2426,1,SJT,
6,223,RULE,THREAT,3861,,0,SJT,
6,224,ABSENT,DISTANCE,3909,3909,1,SJT,
6,225,UNLIMITED,UNRESTRICTED,3840,3840,1,SJT,
6,226,BUILDING,OFFICE,3138,3138,1,SJT,
6,227,FIBULA,PATELLA,2326,2326,1,SJT,
6,228,OVERBEARING,EXTRAPOLATE,3567,,0,SJT,
6,229,ORDINARY,TRADITIONAL,2488,2488,1,SJT,
6,230,BARGAIN,AUCTION,1910,1910,1,SJT,
6,231,WINTER,SUMMER,1278,1278,1,SJT,
6,232,REPRISAL,REDRESS,3101,3101,1,SJT,
6,233,PROPER,CORRECT,2586,2586,1,SJT,
6,234,VALLEY,MOUNTAIN,2015,2015,1,SJT,
6,235,BASIC,SIMPLE,2431,2431,1,SJT,
6,236,BUREAU,PARTRIDGE,2375,,0,SJT,
6,237,INTENSE,PRECISE,4031,,0,SJT,
6,238,BRONZE,STEEL,2994,2994,1,SJT,
6,239,MISCONCEPTION,SUPERSTITION,4312,4312,1,SJT,
6,240,KEY,LOCK,2843,2843,1,SJT,
6,241,KID,,,,0,SJT,
6,242,COMPETENT,RELIABLE,2566,2566,1,SJT,
6,243,COMPLICATION,SUPREMACY,2860,,0,SJT,
6,244,LIE,FALSE,1513,1513,1,SJT,
6,245,PROMISING,POTENTIAL,3840,3840,1,SJT,
6,246,SCENE,STAGE,1941,1941,1,SJT,
6,247,SWAMP,MARSH,2545,2545,1,SJT,
6,248,DURATION,LICENSING,3803,,0,SJT,
6,249,FERTILE,FRUITFUL,2063,2063,1,SJT,
6,250,TRESTLE,PEDESTAL,2307,2307,1,SJT,
6,251,DEITY,DIVINITY,1910,1910,1,SJT,
6,252,ENIGMA,ALLEGIANCE,3229,,0,SJT,
6,253,FORMULA,EQUATION,2288,2288,1,SJT,
6,254,LANDSCAPE,VISTA,2741,2741,1,SJT,
6,255,CONSIDERABLE,REASONABLE,2236,2236,1,SJT,
6,256,ALIVE,ACTIVE,1621,1621,1,SJT,
6,257,FAUNA,PLUMAGE,2808,,0,SJT,
6,258,DISBELIEVING,MISREPRESENT,3203,,0,SJT,
6,259,FUNCTION,PRIVILEGE,2821,,0,SJT,
6,260,TOUGH,SECURE,3891,3891,1,SJT,
6,261,STOVE,OVEN,1811,1811,1,SJT,
6,262,SOCK,SHOE,1872,1872,1,SJT,
6,263,TRY,CLUB,3173,,0,SJT,
6,264,DRAWING,OUTLINE,2711,2711,1,SJT,
6,265,BID,SENSE,2686,,0,SJT,
6,266,REVOLTING,RATIONING,3417,,0,SJT,
6,267,ALGAE,SEAWEED,1191,1191,1,SJT,
6,268,EFFORT,ATTEMPT,2235,2235,1,SJT,
6,269,WAIL,HOWL,1798,1798,1,SJT,
6,270,APPARENT,EVIDENT,2018,2018,1,SJT,
6,271,WORN,AGED,3292,3292,1,SJT,
6,272,POOR,BROKE,2438,2438,1,SJT,
6,273,RESOLVE,SETTLE,1713,1713,1,SJT,
6,274,BEAUTICIAN,HAIRSTYLIST,1722,1722,1,SJT,
6,275,AUDIT,USER,2083,,0,SJT,
6,276,SWAN,GOOSE,1425,1425,1,SJT,
6,277,ELECTRIFY,INVIGORATE,4219,4219,1,SJT,
6,278,REASON,,,,0,SJT,
6,279,BEDROOM,KITCHEN,1536,1536,1,SJT,
6,280,CARBOHYDRATE,CELLULOSE,2398,2398,1,SJT,
6,281,GASP,BREATH,1255,1255,1,SJT,
6,282,ASSIST,STARRING,2640,,0,SJT,
6,283,MOLECULE,ELEMENT,1546,1546,1,SJT,
6,284,INTERIM,IMPROMPTU,1632,1632,1,SJT,
6,285,VARIED,TORTURED,1726,,0,SJT,
6,286,SEEN,VIEW,2107,2107,1,SJT,
6,287,CREW,TEAM,1747,1747,1,SJT,
6,288,PURPOSE,FUNCTION,2450,2450,1,SJT,
6,289,SMOOTHING,FLATTEN,2687,2687,1,SJT,
6,290,SUFFIX,GRAMMAR,2065,2065,1,SJT,
6,291,PAIR,COUPLE,1546,1546,1,SJT,
6,292,DIFFERENCE,DECISION,2433,,0,SJT,
6,293,RUNG,TREAD,2915,2915,1,SJT,
6,294,CONSIDERATE,AFFIRMATIVE,3366,,0,SJT,
6,295,HOSTILITY,ANTIPATHY,3395,3395,1,SJT,
6,296,NOSE,EAR,1260,1260,1,SJT,
6,297,LICE,FLEA,1186,1186,1,SJT,
6,298,BREWING,FERMENT,1733,1733,1,SJT,
6,299,ASHEN,PASTY,3343,3343,1,SJT,
6,300,INFLUENCE,LEADERSHIP,2801,2801,1,SJT,
6,301,BITE,SNACK,2085,2085,1,SJT,
6,302,LEARNING,STUDY,1584,1584,1,SJT,
6,303,VIOLIN,VIOLA,1273,1273,1,SJT,
6,304,BUMP,MOUND,1967,1967,1,SJT,
6,305,DISCLOSURE,DEFIANCE,2719,,0,SJT,
6,306,BEAT,HIT,1121,1121,1,SJT,
6,307,INVOLVED,ABSORBED,2144,2144,1,SJT,
6,308,DIGNIFIED,IMMORAL,2978,,0,SJT,
6,309,LEFT,RIGHT,1372,1372,1,SJT,
6,310,SCORE,STRIKE,3106,3106,1,SJT,
6,311,SLIT,GASH,1391,1391,1,SJT,
6,312,BUYER,CLIENT,1640,1640,1,SJT,
6,313,INTERESTING,ENTERTAINING,2537,2537,1,SJT,
6,314,LETTERBOX,CUBBYHOLE,1788,1788,1,SJT,
6,315,PASS,MET,3186,,0,SJT,
6,316,FAIR,LEAST,3128,,0,SJT,
6,317,RIDDLE,PUZZLE,2463,2463,1,SJT,
6,318,CRUSH,SQUEEZE,1508,1508,1,SJT,
6,319,TWINKLE,DAZZLE,1460,1460,1,SJT,
6,320,WELL,RIGHT,3438,,0,SJT,
6,321,INDENT,INCISE,3220,3220,1,SJT,
6,322,OCCUR,HAPPEN,1369,1369,1,SJT,
6,323,MAINTAIN,REPAIR,1698,1698,1,SJT,
6,324,RELIC,ANTIQUE,1783,1783,1,SJT,
6,325,LAVISH,REGAL,1974,1974,1,SJT,
6,326,GREY,BLAND,2045,2045,1,SJT,
6,327,DISPENSE,BESTOW,1971,1971,1,SJT,
6,328,NOPE,NAY,2626,2626,1,SJT,
6,329,ZERO,NIL,2467,2467,1,SJT,
6,330,RECRUIT,ENLIST,2581,2581,1,SJT,
6,331,BLIND,SHADE,3439,3439,1,SJT,
6,332,SPUR,SLING,2461,,0,SJT,
6,333,PROBLEM,ISSUE,3203,3203,1,SJT,
6,334,SHED,BARN,1781,1781,1,SJT,
6,335,THOUGHT,MIND,2021,2021,1,SJT,
6,336,JAGUAR,PANTHER,1213,1213,1,SJT,
6,337,VERDICT,OUTCOME,2064,2064,1,SJT,
6,338,ENACT,ORDAIN,2587,2587,1,SJT,
6,339,PROTOCOL,ETIQUETTE,1380,1380,1,SJT,
6,340,THREW,LAUNCH,1742,1742,1,SJT,
6,341,WEDGE,SLAB,1988,1988,1,SJT,
6,342,MAIL,POST,1493,1493,1,SJT,
6,343,FOUNDATION,,,,0,SJT,
6,344,STRETCH,HOST,2296,,0,SJT,
6,345,TENSE,STIFF,1826,1826,1,SJT,
6,346,RUB,PET,2130,2130,1,SJT,
6,347,LIT,FLAME,1555,1555,1,SJT,
6,348,ROCK,STONE,2175,2175,1,SJT,
6,349,CRUMBLY,BRITTLE,3116,3116,1,SJT,
6,350,FATE,GLORY,2515,,0,SJT,
6,351,ENTWINE,INTERLACE,3412,3412,1,SJT,
6,352,GONE,PAST,2997,2997,1,SJT,
6,353,FACTOR,STRUGGLE,3457,,0,SJT,
6,354,SWIMMING,OCEAN,1199,1199,1,SJT,
6,355,MADNESS,HECTIC,1801,1801,1,SJT,
6,356,LANTERN,CANDLE,3216,3216,1,SJT,
6,357,LOVING,ADORE,1372,1372,1,SJT,
6,358,KEEN,EAGER,1800,1800,1,SJT,
6,359,TENDENCY,AVOIDANCE,4104,,0,SJT,
6,360,PICKLE,RELISH,1221,1221,1,SJT,
6,361,WON,EARN,3336,3336,1,SJT,
6,362,CONE,SPIRE,3741,3741,1,SJT,
6,363,MANIFEST,EXHIBIT,3589,3589,1,SJT,
6,364,COMPRISE,DEPLORE,3396,,0,SJT,
6,365,WASHER,,,,0,SJT,
6,366,LISTLESS,SCORNFUL,2464,,0,SJT,
6,367,IMPROPRIETY,IMPERIALIST,3580,,0,SJT,
6,368,EVOLUTION,TRANSFORMATION,2648,2648,1,SJT,
6,369,REMARKABLE,SPECTACULAR,2450,2450,1,SJT,
6,370,NEMESIS,,,,0,SJT,
6,371,FORBADE,,,,0,SJT,
6,372,EXAMINE,CONTEMPLATE,2306,2306,1,SJT,
6,373,REAR,STERN,3380,3380,1,SJT,
6,374,CLEAN,WASH,2946,2946,1,SJT,
6,375,UNITE,MERGER,2534,2534,1,SJT,
6,376,CRIME,SIN,1734,1734,1,SJT,
6,377,PERSUASION,,,,0,SJT,
6,378,NORMAL,STANDARD,1288,1288,1,SJT,
6,379,RENT,HIRE,1666,1666,1,SJT,
6,380,FRIVOLOUS,DISMISSIVE,3116,,0,SJT,
6,381,DROWSY,WEARY,1913,1913,1,SJT,
6,382,NEAR,MOVE,3921,3921,1,SJT,
6,383,SURPLUS,PROFIT,3221,3221,1,SJT,
6,384,WIDE,BROAD,1946,1946,1,SJT,
6,385,WITHDRAWN,DETACHED,3439,3439,1,SJT,
6,386,WRONG,BAD,1429,1429,1,SJT,
6,387,VAN,BUS,1401,1401,1,SJT,
6,388,ORANGE,LEMON,1209,1209,1,SJT,
6,389,SHONE,BEAM,1914,1914,1,SJT,
6,390,MOMENTOUS,CONTENTIOUS,3532,,0,SJT,
